Time [s],AccX [m/s^2],AccY [m/s^2],AccZ [m/s^2],GyroX [rad/s],GyroY [rad/s],GyroZ [rad/s]
0,0.960037201,-0.35977792,-9.57048228,0.0031625104,0.00055692414,-0.032209597
0.02,0.872857291,-0.164283107,-9.64723813,0.00358921427,0.00076620363,-0.032416229
0.04,1.01734018,-0.688758947,-9.74171073,0.00316286772,0.000652780962,-0.0331056264
0.06,0.799758585,-0.532499476,-9.68248603,0.00320574103,0.000715952706,-0.033599926
0.08,1.1300955,-0.188876375,-9.70510811,0.00306227287,0.00075088738,-0.0345487558
0.1,0.966585105,-0.491898344,-9.63000494,0.00307283787,0.000800167464,-0.0340928791
0.12,0.838901924,-0.667057549,-9.70537817,0.00311105603,0.000805879119,-0.034466719
0.14,0.791832747,-0.286644681,-9.52349902,0.00382376531,0.00104987855,-0.0348543507
0.16,0.929619192,-0.440031131,-9.58994675,0.00353817476,0.00112278665,-0.0345534596
0.18,0.854859047,-0.648685989,-9.56780108,0.00318126625,0.000792760595,-0.0362906671
0.2,0.890679385,-0.21646532,-9.83663804,0.00351527562,0.00109692308,-0.0354572054
0.22,0.948340161,-0.953553476,-9.68404271,0.00394304822,0.00115652201,-0.0364541381
0.24,0.807678226,-0.411639976,-9.6098621,0.00328704506,0.00140773513,-0.0365257283
0.26,0.826186428,-0.36427551,-9.82115587,0.00355648403,0.00164508874,-0.0374324098
0.28,0.735753149,-0.481428033,-9.69667709,0.00346225456,0.000835365261,-0.038150416
0.3,0.631435408,-0.223833035,-9.59467546,0.00366458392,0.00125784887,-0.038196875
0.32,0.733784232,-0.367349978,-9.58848964,0.00371137176,0.00117008406,-0.0378620286
0.34,0.710575305,-0.340664128,-9.70870579,0.00394515528,0.00111819214,-0.0386745444
0.36,0.780753799,-0.00842637712,-9.69010898,0.00345657533,0.00160414648,-0.0386907234
0.38,0.770577888,-0.63015667,-9.69891985,0.00393435631,0.00142830107,-0.0394774526
0.4,0.831920357,-0.495930157,-9.6553076,0.00348247489,0.00091323439,-0.039148287
0.42,0.703715573,-0.170873158,-9.68705836,0.00381984386,0.00130442131,-0.0399021757
0.44,0.778991387,-0.573918302,-9.65296776,0.00390599292,0.00143384914,-0.0404635641
0.46,0.925737953,-0.382962896,-9.73759399,0.00366092563,0.0013528317,-0.0407973294
0.48,0.691779739,-0.663455838,-9.90783725,0.0037071685,0.00140170013,-0.0406920608
0.5,0.789140321,-0.795911909,-9.65486624,0.00346744107,0.00145228126,-0.0417344885
0.52,0.693818548,-0.130666447,-9.5158289,0.0038606383,0.00174211469,-0.0422388669
0.54,0.585228881,-0.639121612,-9.72968372,0.00407927713,0.00138494707,-0.0430340221
0.56,0.71224478,-0.604092407,-9.94124351,0.00401206914,0.00177379078,-0.0429957915
0.58,0.800274902,-0.809759429,-9.72522299,0.00376418686,0.001255433,-0.0433437248
0.6,0.862683564,-0.548117223,-9.72021386,0.0039566304,0.00161903378,-0.0436416271
0.62,0.662336488,-0.538921177,-9.6080056,0.00387430109,0.00165693546,-0.0435967695
0.64,0.613200173,-0.640707455,-9.79031918,0.00418542807,0.00141530453,-0.0440120059
0.66,0.759547864,-0.601992265,-9.86521793,0.00410992318,0.00124900876,-0.0448055077
0.68,0.639133145,-0.644617549,-9.80529306,0.004129663,0.00238552248,-0.0460029168
0.7,0.563436232,-0.904556812,-9.59481164,0.00392148828,0.00197529473,-0.0461148949
0.72,0.641377952,-0.241562121,-9.67849434,0.00394905811,0.00187476504,-0.0463874167
0.74,0.671560036,-0.693282083,-9.78271201,0.00434163939,0.0021719064,-0.046516503
0.76,0.737348964,-0.270397341,-9.56066419,0.00449929456,0.00166477999,-0.0465839571
0.78,0.698091677,-0.638388595,-9.69203593,0.00390986105,0.00171840218,-0.0471104445
0.8,0.452090337,-0.649063954,-9.76148477,0.0038879641,0.00175355121,-0.0468371353
0.82,0.701043951,-0.4916066,-9.73588352,0.00434784459,0.00151947775,-0.0486695356
0.84,0.399720572,-0.74814341,-9.71162491,0.00410281118,0.00189072479,-0.048737043
0.86,0.686322457,-0.557105581,-9.65495497,0.00444832816,0.001831543,-0.049530356
0.88,0.575608286,-0.746794565,-9.75952987,0.00435264605,0.00162905571,-0.0489512964
0.9,0.606240291,-0.699529509,-9.7366947,0.00431201129,0.00201419799,-0.0495412087
0.92,0.419831475,-0.88320953,-9.68564195,0.00460522685,0.00155194961,-0.0499914358
0.94,0.758386468,-0.647032427,-9.58464934,0.00421595228,0.00187647909,-0.0508269416
0.96,0.621134261,-0.825977329,-9.74594981,0.00476741781,0.00187404297,-0.0516880519
0.98,0.727649975,-0.38398447,-9.70769624,0.00460345773,0.00211260065,-0.0508945284
1,0.483239059,-0.490272625,-9.84194066,0.00469829613,0.00222655326,-0.0524222614
1.02,0.668075289,-0.676474365,-9.81588976,0.00459399198,0.00191681421,-0.0520506585
1.04,0.624109557,-0.865957125,-9.61769809,0.00446068362,0.00205155181,-0.0523410114
1.06,0.556436819,-0.765375629,-9.63395876,0.00446979863,0.00213678728,-0.0526518865
1.08,0.506216142,-1.09494798,-9.68923077,0.00455230705,0.00232910373,-0.053187766
1.1,0.33476198,-0.456137654,-9.64925955,0.00488573759,0.00225388605,-0.0536470197
1.12,0.521690761,-0.644448372,-9.68859717,0.0047018454,0.00242276611,-0.053631437
1.14,0.612296548,-0.42166471,-9.6963118,0.00460031349,0.00217532714,-0.0544716181
1.16,0.51700164,-0.607607834,-9.89478446,0.00470537847,0.00260387385,-0.0549146325
1.18,0.581440054,-0.703025402,-9.7941018,0.00524957094,0.00213410593,-0.0549395654
1.2,0.70526048,-0.602785268,-9.734084,0.0046938499,0.00229308649,-0.0558925065
1.22,0.59441667,-0.693710979,-9.89857991,0.00489339097,0.00277576203,-0.0563866467
1.24,0.34541083,-0.754241369,-9.73677513,0.00494610728,0.0021202517,-0.0562144844
1.26,0.668042859,-0.800711893,-9.73243137,0.00503147641,0.00248559427,-0.0573715242
1.28,0.40606052,-0.726789141,-9.66379287,0.00530542819,0.00275353395,-0.0571861532
1.3,0.551728898,-0.691309427,-9.70580337,0.00518005354,0.00254462443,-0.0581430636
1.32,0.474470053,-1.08078169,-9.66385422,0.0051330451,0.00249152538,-0.0576694206
1.34,0.551384155,-0.803676318,-9.53814877,0.00505196379,0.00250203007,-0.0588562908
1.36,0.575389863,-0.458357395,-9.83798107,0.00552241702,0.00251009754,-0.058620644
1.38,0.511763938,-0.889143986,-9.71914046,0.00510590315,0.00272005283,-0.0598925399
1.4,0.662361996,-1.24659306,-9.7713534,0.00509669917,0.00265254868,-0.0600713495
1.42,0.498697079,-0.59574868,-9.81078539,0.00518133586,0.00255185421,-0.0607722317
1.44,0.31778774,-0.541243848,-9.70789527,0.00508097069,0.00265836463,-0.0609263278
1.46,0.460438863,-1.00351536,-9.58040329,0.00535467503,0.00289548104,-0.060777494
1.48,0.387089703,-0.782367839,-9.59127911,0.00498107902,0.00270892664,-0.0620740051
1.5,0.548407394,-0.71423456,-9.63819243,0.00553044221,0.00306786256,-0.0621190774
1.52,0.380384459,-1.04009807,-9.81583279,0.00546023566,0.00285227383,-0.0627918728
1.54,0.360416024,-0.953641372,-9.831525,0.00553035569,0.0024466238,-0.0630909546
1.56,0.460812687,-1.04524679,-9.55781606,0.0052803969,0.00278143277,-0.0634183811
1.58,0.351954399,-0.968036183,-9.54875234,0.00556237274,0.00268567382,-0.0637544305
1.6,0.416158882,-0.664284814,-9.76768579,0.00525400312,0.00279021583,-0.0644891445
1.62,0.252510588,-0.411423034,-9.74178651,0.00550650214,0.00329493926,-0.0646997515
1.64,0.56640698,-0.8441978,-9.62360316,0.00521076329,0.00276955952,-0.0644230179
1.66,0.499186002,-0.972841498,-9.46628096,0.00547871005,0.00309744941,-0.0654500586
1.68,0.512245129,-1.00233916,-9.70422216,0.00562884639,0.00299731487,-0.0654721755
1.7,0.540982019,-1.11869466,-9.54056881,0.00597753949,0.00330042781,-0.0655679125
1.72,0.316213444,-1.36451319,-9.84920189,0.00553248349,0.00320295186,-0.0672540148
1.74,0.361713427,-0.758434169,-9.66912311,0.00580709088,0.00317825517,-0.0666780964
1.76,0.0554108127,-0.905973927,-9.71177883,0.00576668721,0.00303164322,-0.0672148209
1.78,0.399019226,-0.73141986,-9.86869592,0.00580688286,0.00308690158,-0.0677226453
1.8,0.446451298,-0.939787752,-9.67510442,0.0055509125,0.00327583095,-0.0681642207
1.82,0.509405404,-0.843370492,-9.67308856,0.00593397085,0.00287648988,-0.0683984469
1.84,0.315286801,-0.960010688,-9.73317826,0.0063092024,0.00294168598,-0.0687770536
1.86,0.339854903,-0.682626158,-9.66724329,0.0063435825,0.00287588763,-0.0686158
1.88,0.267226424,-1.2907602,-9.79323808,0.00635684145,0.00361353964,-0.0692829624
1.9,0.398799659,-1.11642313,-9.78251949,0.00605728318,0.00327666713,-0.0702870724
1.92,0.384593415,-0.717105303,-9.75621852,0.00572172411,0.00342856401,-0.0716435783
1.94,0.245323122,-0.954239161,-9.55693017,0.00595223186,0.00350961269,-0.0710023612
1.96,0.361392982,-0.984466918,-9.83430651,0.00626007165,0.00341783526,-0.0718929105
1.98,0.162701628,-0.721116183,-9.69453433,0.00621012814,0.00339176091,-0.0726615631
2,0.336493658,-1.11032655,-9.63700483,0.00610490089,0.00334945397,-0.0723509356
2.02,0.503720251,-0.97019298,-9.77745303,0.00630171472,0.00328541697,-0.073229651
2.04,0.3418683,-0.812512567,-9.58823942,0.00632105277,0.00328573081,-0.0731327021
2.06,0.468468775,-1.02091192,-9.61048913,0.00615485523,0.00355215043,-0.0738476259
2.08,0.350167715,-0.801981179,-9.60747401,0.00635188724,0.00395958495,-0.0749345465
2.1,0.440758486,-1.01351126,-9.62853052,0.00689030062,0.00337618552,-0.0746366229
2.12,0.260551094,-1.21815554,-9.68266277,0.00644005531,0.00380439779,-0.0752125905
2.14,0.457259877,-0.952019821,-9.56856417,0.00655191377,0.00364906657,-0.0750333277
2.16,0.260603647,-1.04332877,-9.85499591,0.00661460224,0.00377038099,-0.0759983966
2.18,0.225437961,-0.895738923,-9.63652722,0.00663310146,0.00330784792,-0.0761291955
2.2,0.155828125,-1.00275548,-9.63122068,0.006494268,0.00354230837,-0.0768035245
2.22,0.284516389,-1.02757726,-9.60038804,0.00659674399,0.00375026744,-0.0777149628
2.24,0.157428632,-1.10515225,-9.79871961,0.00644268874,0.00394850653,-0.0782591226
2.26,0.0900284167,-0.985065396,-9.67024827,0.00699919857,0.00401180978,-0.0786120558
2.28,0.318974403,-1.31332874,-9.67839793,0.00682643718,0.00359880008,-0.0785056314
2.3,0.191577319,-1.08732302,-9.71699721,0.00662819072,0.00380075834,-0.0797492745
2.32,0.335226522,-1.18438635,-9.84051023,0.0066500829,0.00361855921,-0.0799117879
2.34,0.312319196,-1.36936703,-9.71940389,0.00687520388,0.00386402337,-0.0804558648
2.36,0.238623952,-0.857042655,-9.7613845,0.0068149296,0.00393513823,-0.0803278683
2.38,0.315449063,-0.840360961,-9.56871049,0.00684517867,0.00367172532,-0.0810716924
2.4,0.0373582723,-1.23459337,-9.84792297,0.0066322184,0.00412673971,-0.0817869208
2.42,0.23924072,-1.38129979,-9.75373131,0.00707092387,0.00420238785,-0.0823519849
2.44,0.221241946,-1.12865589,-9.67322236,0.00670169291,0.00413813186,-0.0824384489
2.46,0.375976437,-1.07913802,-9.71979992,0.00693498354,0.00425362339,-0.0830586543
2.48,0.139477886,-1.10397091,-9.58474555,0.00661067399,0.00403340168,-0.0835119352
2.5,0.134913177,-1.2477108,-9.85408168,0.00678232151,0.0038877688,-0.083714281
2.52,0.201633551,-1.58207437,-9.57602493,0.00716591548,0.00395784439,-0.0847441645
2.54,0.282995887,-1.36828878,-9.70093879,0.0070420117,0.0038062528,-0.0838941741
2.56,0.17743331,-1.17193784,-9.63172244,0.00727222837,0.00420148096,-0.0856527758
2.58,0.208178254,-1.298175,-9.55188388,0.00723106569,0.0038264771,-0.0862840847
2.6,0.241551203,-0.982091093,-9.8352411,0.00702759418,0.00434494806,-0.0863260601
2.62,0.077946523,-1.37833456,-9.75013139,0.00693519266,0.00427181638,-0.0865806832
2.64,0.169968551,-1.409007,-9.83112976,0.0077342346,0.00411090212,-0.0872399241
2.66,0.289413168,-0.809932608,-9.66376082,0.0071717402,0.00411225822,-0.0873789226
2.68,0.334662363,-1.36849289,-9.67981919,0.00723660781,0.00412020053,-0.0879787215
2.7,0.195123261,-1.01441911,-9.6239216,0.00718211258,0.00417240178,-0.0880201455
2.72,0.179751642,-0.992042384,-9.78629134,0.00730009553,0.00417574203,-0.0890411214
2.74,0.00246467567,-1.10799222,-9.66990893,0.00753784611,0.00474459787,-0.0892398298
2.76,0.152187482,-1.26338225,-9.74881505,0.00748554845,0.00441829536,-0.0892722545
2.78,0.237979936,-1.13010974,-9.65341988,0.0075432815,0.00393375323,-0.0908402699
2.8,0.159562828,-1.41219981,-9.70238772,0.00749798896,0.00434904069,-0.0905987862
2.82,0.34383866,-1.09818554,-9.79802529,0.00766688328,0.00447438933,-0.0911408173
2.84,0.127942244,-0.925204159,-9.75402471,0.00740505957,0.00434950147,-0.0920760706
2.86,0.261786482,-1.35094361,-9.61783608,0.00777122456,0.00425363385,-0.0922912388
2.88,0.26756164,-1.46572276,-9.81074687,0.00785162076,0.00469112815,-0.0922114793
2.9,0.16468756,-1.06575305,-9.74261082,0.00777756178,0.00470147555,-0.0934272412
2.92,0.0929074648,-1.32508976,-9.64630255,0.0079370325,0.00497726084,-0.0941563388
2.94,0.0358410149,-1.15399583,-9.51914393,0.00796132881,0.00450605794,-0.094247009
2.96,0.18948245,-1.56669101,-9.64928665,0.00804262068,0.00464154761,-0.0949794916
2.98,0.334636459,-1.33047187,-9.74213388,0.00776721984,0.00457327355,-0.094603639
3,0.252269658,-1.12451157,-9.6458742,0.0080279003,0.00437435241,-0.0962303909
3.02,0.086907535,-1.50845035,-9.56113611,0.00810170068,0.00475089079,-0.0956990351
3.04,0.0488078396,-1.36002621,-9.52733426,0.00818877391,0.00475774445,-0.0962633876
3.06,0.241711865,-1.32044706,-9.81319231,0.00814828676,0.00444500843,-0.0971167596
3.08,0.121252146,-1.33881524,-9.7803033,0.008122016,0.00494329153,-0.0976553761
3.1,0.418809332,-1.19209175,-9.72170393,0.00849055506,0.00456055004,-0.0978479741
3.12,0.174767289,-1.33279984,-9.77784311,0.00835613869,0.00472957278,-0.0987439654
3.14,0.126366534,-1.47572357,-9.69661725,0.008333101,0.00471228613,-0.0992719188
3.16,0.0933039692,-1.36283803,-9.73393587,0.00828259007,0.00455076075,-0.0999218559
3.18,0.0437453545,-1.72340038,-9.8079225,0.00867465394,0.00488547794,-0.100445383
3.2,0.126445893,-1.25364673,-9.84782015,0.00884951228,0.00457399626,-0.100781661
3.22,-0.0083319087,-0.6815864,-9.7640695,0.00843752451,0.00465140433,-0.100893794
3.24,0.173858759,-1.03011014,-9.64030546,0.0084042327,0.00470765196,-0.101369681
3.26,0.249534051,-0.998315416,-9.76146517,0.00881297943,0.00503821621,-0.102006873
3.28,0.358340448,-1.30179361,-9.85100166,0.00896635848,0.00506632445,-0.103503289
3.3,0.0993317963,-1.27025631,-9.56096653,0.00866975614,0.00502535423,-0.102616152
3.32,0.0214877745,-1.75535114,-9.68416145,0.00900589892,0.00498840271,-0.104293839
3.34,0.065634468,-1.38659233,-9.86883032,0.00848553015,0.00503881186,-0.103408944
3.36,0.188250397,-1.35315129,-9.72878407,0.00868215497,0.00476492984,-0.104706991
3.38,0.17336291,-1.11317242,-9.56339734,0.00852918596,0.00529518592,-0.104903564
3.4,0.179982657,-1.4154211,-9.69668866,0.00878087728,0.00527313636,-0.105585853
3.42,0.168033708,-1.09905808,-9.61723772,0.00905608308,0.00518255635,-0.106017779
3.44,0.140085414,-1.46979083,-9.53693902,0.0092496491,0.00512404943,-0.106991273
3.46,0.0374805423,-1.2572769,-9.80754616,0.00898819685,0.00500904626,-0.106937682
3.48,0.158699284,-1.51299924,-9.88467305,0.00889741685,0.00497835787,-0.108213182
3.5,0.0363523384,-1.81039664,-9.71378576,0.00918329785,0.00483512278,-0.108876852
3.52,0.0751597893,-1.33884226,-9.82855122,0.00902675896,0.0050372891,-0.108740405
3.54,0.0512616568,-1.31938593,-9.75748208,0.00929921623,0.00525412181,-0.109815602
3.56,0.147685714,-1.24625366,-9.47367318,0.00963507915,0.00494977046,-0.109528803
3.58,0.125822243,-1.31383386,-9.67903028,0.00931104735,0.00506634895,-0.109965228
3.6,0.251961423,-1.3689742,-9.71593846,0.00896637342,0.00508678586,-0.111332623
3.62,0.103861956,-1.58666088,-9.86941747,0.00953072975,0.00507724234,-0.111608661
3.64,0.204230171,-1.67509515,-9.7114437,0.00963945982,0.00537125902,-0.112255966
3.66,0.036687985,-1.49681952,-9.68184739,0.0100126035,0.00540432548,-0.112698029
3.68,0.0204332228,-1.26999895,-9.84639956,0.0094862897,0.00493094767,-0.113382793
3.7,-0.0333852942,-1.40337168,-9.62764493,0.00962627111,0.00576518972,-0.11370488
3.72,0.0598061957,-1.38667205,-9.79430774,0.0101552142,0.00519857879,-0.113604302
3.74,0.163427887,-1.93618153,-9.64447776,0.00981001401,0.00497991763,-0.114470884
3.76,0.268074583,-1.69563661,-9.71584312,0.00974663181,0.00563191931,-0.115557704
3.78,-0.0937749513,-1.37951974,-9.67525473,0.00998620113,0.00533696964,-0.11530267
3.8,0.0751117254,-1.55077766,-9.69500405,0.00981494589,0.00537905878,-0.11652084
3.82,0.0503020466,-1.38978821,-9.73496238,0.0101094959,0.0054927816,-0.1174575
3.84,0.0491957466,-1.53310062,-9.72751803,0.0101885042,0.00543374893,-0.117237263
3.86,0.119338749,-1.29290619,-9.7511191,0.00964163874,0.00516476956,-0.11758858
3.88,0.208202276,-1.28075342,-9.75318833,0.0100998707,0.00526448086,-0.118525837
3.9,0.058364058,-1.49352818,-9.73879635,0.0104468975,0.00515210663,-0.118544974
3.92,0.0639629962,-1.36840611,-9.70196973,0.0101511764,0.00577674803,-0.119776851
3.94,0.108021807,-1.46570409,-9.81682676,0.0100143607,0.00549361709,-0.121127898
3.96,0.152588386,-1.74465282,-9.4700338,0.00998808722,0.00532466329,-0.120964347
3.98,0.0983519437,-1.45788014,-9.68995012,0.0104854901,0.00561031308,-0.120650027
4,-0.1048714,-1.65337,-9.67058754,0.0108182944,0.00550001037,-0.122043961
4.02,0.0992498313,-1.57457589,-9.73901803,0.0104506079,0.00567111008,-0.122065177
4.04,0.0302332135,-1.46180456,-9.77414373,0.0104156939,0.00561041464,-0.122401291
4.06,0.0932420889,-1.52743845,-9.69124606,0.0108985852,0.005763834,-0.12411665
4.08,-0.0265031298,-1.52767367,-9.76270243,0.010713666,0.00583824455,-0.1235739
4.1,-0.0444882546,-1.4856732,-9.68363563,0.0106624206,0.00544468952,-0.124631312
4.12,0.274362561,-1.59338203,-9.84672684,0.0110078094,0.00526021442,-0.124958601
4.14,0.117309907,-1.74135287,-9.7425265,0.0107086944,0.00557142189,-0.12573628
4.16,0.0741470118,-1.78025918,-9.87490488,0.0109449203,0.00580464128,-0.126165216
4.18,0.217146874,-1.37451723,-9.56657023,0.0108207088,0.00569303293,-0.127227084
4.2,0.0143380748,-1.66046563,-9.71064623,0.0111056467,0.00549446041,-0.12707214
4.22,-0.0875312803,-1.6731874,-9.81899844,0.0108699007,0.00598310978,-0.127455731
4.24,0.0853223383,-1.83903824,-9.9317602,0.0110690126,0.00553354993,-0.127899829
4.26,0.367584699,-1.6173052,-9.71224621,0.0113011137,0.00563874089,-0.129425871
4.28,0.168500471,-1.38248333,-9.69799511,0.0115348215,0.00571074422,-0.129154635
4.3,0.212098551,-1.76750533,-9.66826432,0.0108839654,0.00541127091,-0.130326583
4.32,0.14056178,-1.80974365,-9.69827968,0.0115121386,0.00572510044,-0.130858951
4.34,0.220117433,-1.76960876,-9.70813382,0.0115828279,0.00588121855,-0.13124368
4.36,0.0628868975,-1.40097461,-9.75873482,0.0114660484,0.00556857854,-0.131143361
4.38,0.0359436266,-1.57929403,-9.71650935,0.0115943534,0.00582002893,-0.132539725
4.4,0.0528934805,-1.70567899,-9.76448033,0.0112343496,0.00539794306,-0.132544427
4.42,0.323916993,-1.62047617,-9.79333009,0.0113427245,0.00587611093,-0.133652118
4.44,0.0612185731,-1.99899098,-9.75845573,0.0116709451,0.00590703933,-0.133609555
4.46,0.12929288,-1.29151155,-9.6442835,0.011848076,0.00576170699,-0.134501645
4.48,0.0387655468,-1.42542437,-9.72055651,0.0113892191,0.00603787759,-0.135054183
4.5,0.136706881,-1.54379828,-9.85327333,0.0121265757,0.00600635927,-0.135603017
4.52,0.00283272342,-1.36944742,-9.77852559,0.0117292511,0.00576697115,-0.136076178
4.54,0.162707686,-1.57500386,-9.8843026,0.0117454455,0.00580204599,-0.135664775
4.56,0.0774323958,-2.02731951,-9.7995378,0.0119628546,0.00589027528,-0.137658375
4.58,0.0851327976,-1.35755737,-9.56955388,0.0120893351,0.00598087034,-0.137376586
4.6,0.212846887,-1.67178636,-9.86172055,0.0119003347,0.00583305818,-0.138323901
4.62,0.0355829612,-1.68904402,-9.65217173,0.0123299077,0.00593547269,-0.139038463
4.64,0.094184474,-1.67008722,-9.54706081,0.0123299057,0.00567501028,-0.139738964
4.66,0.0383504621,-1.89586273,-9.76937466,0.0120041689,0.00591700689,-0.140407654
4.68,0.180225953,-1.58053975,-9.71495035,0.0120685219,0.00607117689,-0.140666344
4.7,0.383185162,-1.72377508,-9.79089453,0.0124369596,0.00601951478,-0.141064481
4.72,0.00561153063,-1.83868954,-9.77297342,0.012216288,0.00579911966,-0.141790205
4.74,-0.0524629122,-1.51774088,-9.83739397,0.0124504933,0.00594051751,-0.142737243
4.76,0.220159545,-2.03180815,-9.71877732,0.0125996728,0.00573797514,-0.14324763
4.78,0.224246939,-2.02573074,-9.8162055,0.0125774967,0.00609175556,-0.143175487
4.8,0.108648992,-1.2518863,-9.62259285,0.0120257288,0.00562114492,-0.144913367
4.82,0.146412366,-2.177381,-9.8515458,0.0126620206,0.00589633536,-0.144915716
4.84,0.308402069,-2.06917985,-9.68332876,0.0126594264,0.00572548516,-0.145360727
4.86,0.172107771,-1.63345367,-9.71800098,0.0130884552,0.0057280071,-0.145410167
4.88,0.149725971,-1.71992549,-9.68842434,0.0132436623,0.00568089677,-0.145819914
4.9,0.058428635,-1.77720773,-9.79380078,0.013157975,0.00608171453,-0.14794733
4.92,0.058737844,-1.66500659,-9.80631473,0.0128165518,0.00610843841,-0.147654952
4.94,-0.0133960713,-1.87415113,-9.5859288,0.013149935,0.00587428072,-0.148462552
4.96,0.171130071,-1.59389255,-9.94657642,0.0131616891,0.0063113019,-0.148502021
4.98,0.10463619,-1.58653486,-9.5914851,0.0134152858,0.00605239616,-0.149704575
5,0.13766474,-1.39332751,-9.73881684,0.0129486286,0.00574626939,-0.149810476
5.02,0.399721479,-1.57889817,-9.81540315,0.0132848121,0.00636365024,-0.150592154
5.04,0.170154239,-1.88388102,-9.66814683,0.0133313367,0.0059380551,-0.150885175
5.06,0.112699144,-1.99376116,-9.75198178,0.0138774006,0.00573869767,-0.151727189
5.08,0.03649125,-1.61352293,-9.66018246,0.0138592751,0.00593887572,-0.151979522
5.1,0.0656950239,-2.00376112,-9.77892813,0.0134470075,0.00577064125,-0.152950788
5.12,0.122184689,-1.63063241,-9.73877414,0.0140497677,0.00600895534,-0.153080211
5.14,0.00969615206,-1.64520705,-9.88060964,0.0135304091,0.00540106676,-0.15385229
5.16,-0.0307513218,-1.90651194,-9.63752128,0.0139080318,0.00603054665,-0.154373571
5.18,0.0699448152,-1.8741251,-9.71107406,0.0140304783,0.00590059254,-0.154679175
5.2,0.272418067,-2.18331325,-9.65310531,0.0141222702,0.00597388496,-0.155048461
5.22,0.151584598,-1.84897728,-9.71725548,0.013658289,0.00596601316,-0.156007087
5.24,0.0288545746,-1.83419883,-9.90866398,0.0143017163,0.0059095068,-0.156254405
5.26,0.210508558,-2.51139294,-9.99728371,0.0143148184,0.00610098545,-0.157335451
5.28,0.374772447,-1.72773219,-9.71914301,0.0141171026,0.00577247924,-0.157821432
5.3,0.150798302,-1.98614306,-9.7388668,0.0141684017,0.00586146284,-0.157695058
5.32,0.27048456,-1.95327136,-9.6794043,0.0145528625,0.00595566555,-0.15877904
5.34,0.109381496,-1.62950611,-9.67956745,0.0141125147,0.00589004305,-0.159657638
5.36,0.242285669,-1.82398021,-9.83340991,0.0144575646,0.00595752447,-0.160013086
5.38,0.352514121,-1.70926237,-9.80619719,0.0140664531,0.00569265526,-0.161009488
5.4,0.0898392707,-2.08642483,-9.66380496,0.0144792664,0.0053905897,-0.160771818
5.42,0.21090923,-1.80686712,-9.8766368,0.0146173669,0.00600634006,-0.161470789
5.44,0.279909924,-1.9146243,-9.68855758,0.0144702448,0.0058938536,-0.161317314
5.46,0.250715402,-1.73657995,-9.87090384,0.0148793414,0.00588419848,-0.162793331
5.48,0.11626361,-2.01540661,-9.64054951,0.0146815879,0.00577773551,-0.163572441
5.5,0.373082951,-1.82009677,-9.75654359,0.0148300697,0.00546407879,-0.163576564
5.52,0.168655765,-1.9671882,-9.73700843,0.0146913821,0.00571072368,-0.164314353
5.54,0.170322024,-2.05926652,-9.62356248,0.014923483,0.00609339358,-0.165041904
5.56,0.198011179,-2.08602303,-9.68205935,0.0147417505,0.00586812058,-0.165933185
5.58,0.144631319,-2.12026593,-9.54425616,0.0148936626,0.00567554924,-0.165685452
5.6,0.116106179,-2.08323027,-9.56861386,0.0150196281,0.00574623525,-0.166064663
5.62,0.290089018,-1.92446065,-9.80511897,0.0150634396,0.00553658341,-0.167072665
5.64,0.140117002,-2.04053271,-9.84666148,0.0153054378,0.00539823511,-0.166888999
5.66,0.217901022,-1.63056441,-9.68313855,0.0154842265,0.00561113376,-0.167917923
5.68,0.411538693,-1.98905472,-9.72178032,0.0152273775,0.00566848894,-0.16860978
5.7,0.133399775,-2.04868827,-9.83613886,0.0151376095,0.00576212622,-0.169820988
5.72,0.240167974,-1.96087107,-9.60587502,0.0157998028,0.00556760338,-0.169419776
5.74,0.289253783,-2.28925844,-9.76646348,0.0156786483,0.00537821348,-0.170856633
5.76,0.371239051,-1.99480264,-9.69149516,0.0156056602,0.00564800949,-0.170885923
5.78,0.257571127,-2.62503518,-9.65247726,0.0157259431,0.00569760284,-0.170273514
5.8,0.427051193,-2.21157812,-9.83793161,0.01566431,0.00540809502,-0.172210799
5.82,0.335985482,-2.29087827,-9.59543515,0.0161188357,0.00593998443,-0.172013592
5.84,0.207401352,-2.10960495,-9.53753873,0.016005451,0.00562406913,-0.172846637
5.86,0.340002138,-1.94250992,-9.68922485,0.0161457679,0.0052599968,-0.173673545
5.88,0.315185775,-2.04403047,-9.75306231,0.0159477888,0.00567233794,-0.173627768
5.9,0.370393857,-1.67594554,-9.57148773,0.0157779528,0.00574964988,-0.174950119
5.92,0.266139902,-2.35196726,-9.70243516,0.0160802023,0.00522029801,-0.175490416
5.94,0.195323436,-1.8631385,-9.78833108,0.0157818177,0.00527499998,-0.175271978
5.96,0.269751187,-2.10820251,-9.68515008,0.0161111992,0.00561236719,-0.176517029
5.98,0.405166053,-1.89528334,-9.70336607,0.0155640561,0.00527850477,-0.176455294
6,0.179753341,-1.96695777,-9.95298306,0.0166499392,0.00566684818,-0.176401834
6.02,0.340759213,-2.00110349,-9.65257267,0.0160229687,0.00500700032,-0.177022381
6.04,0.386678746,-1.99436848,-9.80151984,0.0162506856,0.00522765998,-0.178216514
6.06,0.416503049,-2.17998776,-9.69024233,0.0165714773,0.0053952599,-0.178114088
6.08,0.176783156,-1.88765824,-9.76116039,0.0165440776,0.00519055753,-0.178936435
6.1,0.442534788,-1.99035698,-9.81944704,0.0168000375,0.00501176254,-0.179665489
6.12,0.393227383,-2.40243396,-9.71563471,0.0168117036,0.00544158623,-0.180033686
6.14,0.443267384,-1.84053198,-9.63693179,0.0164261009,0.00532099896,-0.180422052
6.16,0.414668711,-1.86168355,-9.81800768,0.0170041103,0.0050199559,-0.180859946
6.18,0.387973623,-1.95623412,-9.69685816,0.0171236789,0.00527946875,-0.181571237
6.2,0.371724523,-1.83827487,-9.69955429,0.0168885827,0.00500339397,-0.181677609
6.22,0.43726856,-2.34386252,-9.63027171,0.0167338225,0.00495414048,-0.182214931
6.24,0.383511381,-2.28105623,-9.800687,0.0168993794,0.00515417354,-0.18223492
6.26,0.387324527,-2.11908933,-9.45931604,0.0168648205,0.0049310894,-0.183342681
6.28,0.324398675,-2.10156393,-9.81052722,0.0170645506,0.00486783046,-0.183698927
6.3,0.441102298,-1.91688394,-9.5998407,0.016833064,0.0049105626,-0.184817533
6.32,0.518748755,-2.14990118,-9.73891676,0.0172875531,0.00462220978,-0.184526696
6.34,0.567097229,-2.56973015,-9.71543591,0.0175832648,0.00472550059,-0.185388775
6.36,0.403240017,-2.28625429,-9.79435953,0.0175614418,0.00482467217,-0.18582906
6.38,0.529209479,-1.97698094,-9.52089371,0.0172949953,0.00459975418,-0.185783771
6.4,0.343953313,-1.99834239,-9.58907989,0.0173788819,0.00451368895,-0.186788398
6.42,0.506236585,-1.71966418,-9.71097655,0.0173749783,0.00507007211,-0.186795042
6.44,0.362358524,-2.08697041,-9.69157576,0.0175898524,0.00481007615,-0.187569472
6.46,0.373671038,-1.7517608,-9.64982012,0.0178133486,0.0046559098,-0.187516799
6.48,0.486290526,-2.48979748,-9.74031175,0.0172555331,0.00455978833,-0.188002327
6.5,0.365572877,-2.07125189,-9.76809355,0.0174157038,0.00483327474,-0.188706728
6.52,0.292020561,-2.1277915,-9.79681846,0.017564946,0.00456444038,-0.189282874
6.54,0.527513399,-2.25096387,-9.6886414,0.0179125907,0.0046250257,-0.188632351
6.56,0.651124368,-1.97831823,-9.64381181,0.0177666307,0.00445024632,-0.189753329
6.58,0.49000851,-2.06635664,-9.71965595,0.0179118466,0.00457286201,-0.189768112
6.6,0.611734847,-2.01918912,-9.66543086,0.0177104155,0.00497281175,-0.189891034
6.62,0.7016798,-2.21771599,-9.70961799,0.0177340415,0.00429274131,-0.190825297
6.64,0.586401705,-2.10091924,-9.78050858,0.0179904182,0.00446305821,-0.190738365
6.66,0.480051859,-2.34478516,-9.81468218,0.0179240813,0.0043103161,-0.191182262
6.68,0.519260793,-1.89941061,-9.60910048,0.0177040399,0.00436476789,-0.19207386
6.7,0.797545691,-1.87400949,-9.72163661,0.01818134,0.00412188611,-0.192449541
6.72,0.568015582,-2.31212585,-9.63351051,0.0182579335,0.00398097012,-0.192122384
6.74,0.522104488,-1.89975789,-9.62586942,0.0183785865,0.00413560268,-0.192685447
6.76,0.45413352,-1.84127047,-9.78085768,0.0181573105,0.00395735591,-0.193469601
6.78,0.448416541,-1.96092731,-9.69468167,0.0181544596,0.00415519541,-0.19454498
6.8,0.696351485,-2.3654454,-9.48356736,0.0182320606,0.00417722018,-0.193638193
6.82,0.630409733,-2.06901879,-9.7084886,0.0182890019,0.00402584615,-0.19430645
6.84,0.441663225,-2.31740638,-9.65643094,0.0183462619,0.00385008218,-0.194228803
6.86,0.500170606,-2.17687764,-9.62879955,0.0184794178,0.00399326086,-0.194624565
6.88,0.622835694,-2.10851859,-9.63202876,0.0181423104,0.00373573208,-0.195736142
6.9,0.644260601,-2.1442442,-9.75180934,0.0182854132,0.00385263685,-0.195903142
6.92,0.451149405,-2.71702314,-9.68874318,0.0183985335,0.00339988134,-0.19569079
6.94,0.533543,-1.7338231,-9.7104873,0.018555785,0.00374392667,-0.196247403
6.96,0.785050842,-1.97525938,-9.79129164,0.0185007293,0.00398732913,-0.196303485
6.98,0.469025774,-1.87112275,-9.58587266,0.018545285,0.00393586843,-0.196416512
7,0.631932436,-1.86148773,-9.48745967,0.0187504228,0.00343665721,-0.196604595
7.02,0.721713351,-1.92078615,-9.80147748,0.0183290317,0.00353143255,-0.197157021
7.04,0.626363389,-2.45535769,-9.8325901,0.0188831724,0.00355508589,-0.197677819
7.06,0.621565273,-2.0462386,-9.72617544,0.0184179512,0.00337428362,-0.197930001
7.08,0.574380302,-1.93960056,-9.66266759,0.0184599712,0.00364257786,-0.198259519
7.1,0.811049708,-2.23340423,-9.50676137,0.0188249028,0.00402443126,-0.197980746
7.12,0.772060485,-2.0110002,-9.74357887,0.0189709608,0.00358674094,-0.199102805
7.14,0.693987882,-2.1752092,-9.6829367,0.0189555493,0.00353953505,-0.199117653
7.16,0.680119817,-2.39129691,-9.82396735,0.0191875732,0.00301165162,-0.199032491
7.18,0.743785033,-2.12744098,-9.71362635,0.0186008945,0.00308287699,-0.198631918
7.2,0.647682008,-2.56680136,-9.70062881,0.0187976438,0.00303477943,-0.198980517
7.22,0.665736191,-2.11845238,-9.70018477,0.0189715374,0.00305647034,-0.200326591
7.24,0.751979559,-2.55591161,-9.73856639,0.0190138824,0.00327622992,-0.199091712
7.26,0.758629604,-2.11673321,-9.49576622,0.0193379135,0.00281024225,-0.199865344
7.28,0.831120786,-2.53247584,-9.5685005,0.0191325098,0.00303322301,-0.200388147
7.3,0.576628395,-2.26780331,-9.5971396,0.0188353042,0.00290869465,-0.200571934
7.32,0.682573339,-2.78318701,-9.77250594,0.0190437529,0.00277548787,-0.200469984
7.34,0.715977584,-2.3583196,-9.48228583,0.0190352265,0.00288549203,-0.20096249
7.36,0.662131902,-2.45730166,-9.56217863,0.0192066526,0.00309497937,-0.200815472
7.38,0.998669333,-2.35869405,-9.79000225,0.0188993041,0.00275145028,-0.200467415
7.4,0.584961586,-2.57035676,-9.75705442,0.0192919745,0.00278737204,-0.201328596
7.42,0.808836488,-1.9923068,-9.3715332,0.0189737355,0.00241379498,-0.201562179
7.44,0.57220737,-1.99872656,-9.70762847,0.01922323,0.00300362255,-0.201414251
7.46,0.892185375,-1.99700714,-9.80624614,0.0196023951,0.00252228105,-0.202001116
7.48,0.495567907,-2.14045624,-9.53499955,0.0192753876,0.00276188453,-0.202301189
7.5,0.80923677,-1.95288486,-9.66695373,0.0192313531,0.00210931707,-0.202377813
7.52,0.861689965,-2.19818777,-9.56529376,0.0192705052,0.0025813033,-0.202419439
7.54,0.758036538,-2.12365279,-9.63311294,0.0191707244,0.00240777052,-0.202925517
7.56,0.761708103,-1.88511282,-9.77915821,0.0194345063,0.00246550288,-0.202242441
7.58,0.893186641,-1.87507583,-9.59671924,0.0195386358,0.0024287648,-0.203025839
7.6,0.84195121,-1.96637136,-9.91422681,0.0188522978,0.00225647381,-0.202208408
7.62,0.822173814,-1.95090493,-9.71995379,0.0192945503,0.00173548132,-0.202188832
7.64,0.913738559,-2.27010321,-9.67383069,0.0194690536,0.00209486477,-0.20273256
7.66,0.744970897,-2.17157732,-9.54916234,0.0195837474,0.00179226375,-0.202639034
7.68,0.834894832,-2.0497884,-9.67996381,0.0195110715,0.00239759843,-0.20300872
7.7,0.922905978,-2.00461807,-9.56391362,0.0191185701,0.00193340968,-0.203561347
7.72,0.768775177,-2.08037042,-9.42443081,0.0192655678,0.00159028701,-0.202734826
7.74,0.653655782,-1.98899932,-9.71006348,0.0193481856,0.00182519027,-0.202531455
7.76,0.664521698,-2.20189728,-9.64399961,0.0194186118,0.0020274466,-0.202745707
7.78,0.732735381,-2.27319824,-9.69265604,0.019308164,0.00169018485,-0.203328681
7.8,1.01568263,-2.35891563,-9.65812866,0.0191120313,0.00176875395,-0.203047518
7.82,0.750061362,-2.54486041,-9.5776037,0.0192521511,0.00152699754,-0.202757109
7.84,0.924855932,-2.38995728,-9.66994403,0.0191982648,0.00170169621,-0.203042855
7.86,1.04588386,-2.36396476,-9.67209165,0.0195442104,0.00123126786,-0.203068635
7.88,0.981926117,-2.62935182,-9.57442028,0.0193110747,0.00150728656,-0.203071243
7.9,0.994481787,-2.071244,-9.66610015,0.0191167997,0.00148033106,-0.202380606
7.92,0.790986631,-1.9245912,-9.61476193,0.0193546382,0.00160809018,-0.203454216
7.94,0.97377936,-2.30759608,-9.55467385,0.0191923029,0.00110597646,-0.204078987
7.96,0.984818038,-2.45945779,-9.6519228,0.0192882626,0.00080749852,-0.202933715
7.98,1.00988959,-2.33225547,-9.72928912,0.0194309989,0.000993194234,-0.203553006
8,1.05505506,-2.33916424,-9.60368985,0.0190202382,0.00178688743,-0.202504261
8.02,0.938571701,-2.0421432,-9.60822755,0.0194583485,0.000835341399,-0.202717931
8.04,0.99730465,-2.03050339,-9.73739517,0.0195001916,0.00085493487,-0.202779422
8.06,0.948623378,-2.31833461,-9.52003092,0.0190616564,0.000920315977,-0.202241452
8.08,0.984973741,-1.99979078,-9.8356372,0.0195019472,0.000922341002,-0.201875076
8.1,1.04291563,-2.21930565,-9.44047718,0.019311395,0.00102605436,-0.202584967
8.12,1.11524801,-2.28793186,-9.6066902,0.0191807277,0.000798443541,-0.202422631
8.14,0.900386554,-1.73799391,-9.81366422,0.0191109162,0.00102888123,-0.202304837
8.16,0.907930767,-2.05660658,-9.4550828,0.0193079111,0.000657293143,-0.201952129
8.18,1.02774867,-2.17239877,-9.61026703,0.0192209513,0.000520999373,-0.202246383
8.2,1.08057231,-2.31019477,-9.46768427,0.0190039203,0.000828987309,-0.201869858
8.22,1.15326259,-1.9415081,-9.7956397,0.0192316166,0.000447758814,-0.201857391
8.24,0.950906426,-2.71837268,-9.59196545,0.0193675288,0.000657333193,-0.201366798
8.26,1.21657209,-2.03799714,-9.68484027,0.0191739407,0.000294163203,-0.202646895
8.28,0.867724953,-2.29913791,-9.66554829,0.0188419974,0.000513599822,-0.201717533
8.3,0.878376469,-2.57418611,-9.54344673,0.0192285935,0.000546743773,-0.201333695
8.32,0.937862792,-2.06567415,-9.49528769,0.0192300773,0.000532109105,-0.201612219
8.34,1.0497028,-2.31838113,-9.62576055,0.0191099969,0.000129912822,-0.201074903
8.36,1.1844177,-2.3357239,-9.53814427,0.0192715288,0.000390745599,-0.201008659
8.38,0.917683931,-2.47186249,-9.74491763,0.0189537752,1.68760633e-05,-0.200411715
8.4,1.18212787,-2.4002838,-9.50785955,0.0191128164,0.000157956725,-0.200301022
8.42,1.02179213,-2.39231474,-9.78065813,0.0187098285,3.65296086e-05,-0.199967161
8.44,0.834958349,-2.03873618,-9.64479952,0.0188674553,5.69544657e-05,-0.199908843
8.46,1.10292074,-2.08840521,-9.58786432,0.0192719192,-0.000132636392,-0.200077228
8.48,1.10772972,-2.4195998,-9.60622887,0.0190987298,-0.000129828882,-0.199213233
8.5,1.2297475,-2.0039603,-9.61658748,0.0188886762,-0.000391222948,-0.199850312
8.52,1.02866753,-2.17797163,-9.41475213,0.0192020217,-0.0005481531,-0.199191318
8.54,1.21051452,-2.75475759,-9.70650364,0.0189387959,-0.000157095615,-0.199400095
8.56,1.08862023,-2.07023019,-9.67699677,0.0186997154,-0.000401137544,-0.198653911
8.58,1.20323391,-2.09373327,-9.6266493,0.0185999007,-0.000176179315,-0.198944356
8.6,1.1073322,-1.8280568,-9.66791848,0.0189259374,-0.000347951503,-0.198234292
8.62,1.08297169,-2.22221284,-9.43055997,0.0190575798,-0.00041689356,-0.198591192
8.64,0.994642696,-2.41431871,-9.69236887,0.0186449979,-0.00069310019,-0.197151229
8.66,1.22222164,-2.21269407,-9.69173534,0.0186651448,-0.000758567231,-0.197737767
8.68,1.11424916,-2.33049786,-9.60176234,0.0182521452,-0.000193284704,-0.19777226
8.7,1.15115933,-2.2333602,-9.49344939,0.0186502398,-0.000122313789,-0.197179997
8.72,1.29471256,-1.97993608,-9.56502731,0.0180451625,-0.000629048381,-0.196608533
8.74,1.02349347,-1.94321319,-9.53788542,0.0189292275,-0.0008852628,-0.196921198
8.76,1.20275301,-2.34088879,-9.60141061,0.0184956488,-0.00100020192,-0.196518859
8.78,1.38012171,-1.97074443,-9.63967962,0.0181976189,-0.000543971116,-0.196229707
8.8,1.1365213,-2.4400987,-9.6922998,0.0182446051,-0.000933609884,-0.195339467
8.82,1.22081114,-1.97962246,-9.5887155,0.018320603,-0.000461107133,-0.19556979
8.84,1.22450451,-2.20978966,-9.67862717,0.0183221927,-0.000755071242,-0.194677308
8.86,1.17161671,-2.03308513,-9.55642107,0.0182145148,-0.000797152766,-0.194887827
8.88,1.15308261,-2.08643772,-9.59972103,0.0185413799,-0.00128980358,-0.194579143
8.9,1.09046469,-2.29276986,-9.60573037,0.0180739385,-0.00137642697,-0.193738985
8.92,1.24986646,-2.15429225,-9.53210318,0.0183689853,-0.000727266276,-0.193639805
8.94,1.00800576,-2.06463273,-9.87529651,0.0183019761,-0.000929427312,-0.193248961
8.96,1.06111361,-2.16517538,-9.65589836,0.018227311,-0.00129109198,-0.192744136
8.98,1.16449508,-2.29480808,-9.67981674,0.0181264522,-0.00132712187,-0.192596751
9,1.18470731,-1.91325063,-9.53021115,0.0178309561,-0.00108345228,-0.192407368
9.02,1.22025989,-2.10893748,-9.61119722,0.0180277324,-0.00140730613,-0.191923076
9.04,1.12123041,-1.96970608,-9.82148404,0.0178428601,-0.00136798168,-0.191466614
9.06,1.34852938,-2.38510951,-9.65446878,0.0181036752,-0.00150882865,-0.192088977
9.08,1.13600432,-2.46274356,-9.48777351,0.0178120003,-0.00119685625,-0.191552126
9.1,1.21528723,-2.40840329,-9.74810785,0.0176838266,-0.0015058773,-0.190791587
9.12,1.10787508,-2.1261367,-9.61867607,0.0178947515,-0.00135731641,-0.189712653
9.14,1.34914554,-2.2252915,-9.6359229,0.0177316472,-0.00154520204,-0.189686197
9.16,1.13228201,-1.98688595,-9.68704237,0.0175449134,-0.00146516927,-0.189217829
9.18,1.05283265,-2.23358772,-9.68043877,0.0174626268,-0.00152820856,-0.18866735
9.2,1.32639608,-2.08053925,-9.62274341,0.0176802039,-0.00168713694,-0.18841181
9.22,1.22657622,-2.03052669,-9.68002958,0.0174031748,-0.00179392958,-0.18775271
9.24,1.32144253,-2.07009016,-9.71329601,0.0172764965,-0.00170152196,-0.188107754
9.26,1.2609958,-1.85301345,-9.73669244,0.0175051738,-0.00166318439,-0.18724727
9.28,1.41857049,-1.95060726,-9.69408628,0.0174415045,-0.00150789201,-0.185838506
9.3,1.39397296,-1.94320338,-9.36095617,0.0174220351,-0.00192158946,-0.186360425
9.32,1.24773668,-1.96457881,-9.695741,0.0174452699,-0.00185608187,-0.185785622
9.34,1.20534963,-1.9219898,-9.6261806,0.0174153139,-0.00180416144,-0.185039174
9.36,1.15023261,-2.23023171,-9.51313397,0.016824502,-0.00127420777,-0.185233064
9.38,1.4070429,-2.31064291,-9.6991826,0.0171330363,-0.00248779114,-0.184598329
9.4,1.37039274,-2.23156465,-9.52805762,0.016865084,-0.00197796255,-0.18448832
9.42,1.3361307,-1.83447987,-9.77574888,0.0172148099,-0.0019695801,-0.183413687
9.44,1.23548424,-1.9545665,-9.68251439,0.0168639065,-0.00250595666,-0.183129064
9.46,1.26803824,-2.25901197,-9.50401844,0.0168172321,-0.00185282545,-0.18326695
9.48,1.44332053,-1.9300653,-9.6432053,0.0172037762,-0.00231839262,-0.182458316
9.5,1.62812159,-2.32683689,-9.6759936,0.016538883,-0.00186638486,-0.181380425
9.52,1.12078842,-2.22900582,-9.48328287,0.0167673757,-0.00191949207,-0.180998718
9.54,1.32937478,-1.53331396,-9.51756691,0.0165581637,-0.00218734906,-0.18095597
9.56,1.05227391,-2.1438096,-9.72628195,0.0167594792,-0.00254981726,-0.180940786
9.58,1.34178159,-2.1803043,-9.61468763,0.0165021028,-0.00218493317,-0.180729715
9.6,1.3072329,-2.34361804,-9.50122411,0.0165191408,-0.00186548559,-0.180012711
9.62,1.50123968,-2.35558797,-9.55708417,0.016520406,-0.00215178107,-0.178966594
9.64,1.54567293,-2.46842374,-9.54944433,0.0165850638,-0.00243816671,-0.178768956
9.66,1.28485085,-2.06455023,-9.63010988,0.0166029516,-0.00230122458,-0.178294888
9.68,1.53476999,-1.9862033,-9.79132493,0.0166635682,-0.00209539744,-0.17813593
9.7,1.21451946,-1.73975203,-9.53055561,0.0161437108,-0.00218233217,-0.176606257
9.72,1.40283566,-1.80969828,-9.68063499,0.0165300875,-0.00225634384,-0.177144781
9.74,1.42098486,-1.57123001,-9.51310247,0.016241411,-0.0022843273,-0.176215867
9.76,1.38813282,-2.16829049,-9.83108962,0.0162827965,-0.00243851267,-0.175019721
9.78,1.38010944,-2.28084399,-9.44848912,0.0157235143,-0.00264453824,-0.175274049
9.8,1.39956009,-1.78037452,-9.57124778,0.0161515616,-0.00234303504,-0.174679966
9.82,1.31779184,-2.019502,-9.61007554,0.0160137574,-0.00278511724,-0.174400688
9.84,1.46812045,-2.09161471,-9.58697435,0.015957765,-0.00248959434,-0.174085062
9.86,1.54893653,-1.77771654,-9.59475906,0.0157501632,-0.00218752625,-0.173013992
9.88,1.51910576,-2.08934122,-9.67799392,0.0159329948,-0.0027338853,-0.172224281
9.9,1.2874761,-2.0675844,-9.56808112,0.0158074706,-0.00254026583,-0.171977185
9.92,1.42275886,-1.75576804,-9.5509706,0.0154356937,-0.00270463296,-0.171738355
9.94,1.47117311,-1.73014973,-9.68716106,0.0150672841,-0.00265849749,-0.171055739
9.96,1.38026392,-1.90661947,-9.58312061,0.0154211469,-0.00250877718,-0.169970513
9.98,1.33300697,-2.08169866,-9.69214826,0.0150771208,-0.00258919433,-0.169510885
10,1.45718241,-1.85604126,-9.81982888,0.0151219291,-0.00260675148,-0.16909169
10.02,1.32256407,-2.13517527,-9.63470262,0.015279096,-0.00277221441,-0.168087737
10.04,1.42369982,-1.82901486,-9.64335782,0.0151380445,-0.00282840253,-0.167882939
10.06,1.51768194,-1.91295544,-9.66929079,0.0151434175,-0.00311490423,-0.168217037
10.08,1.47877578,-1.93517569,-9.61127135,0.0153252416,-0.00260957824,-0.168046141
10.1,1.42976674,-1.43700523,-9.70527211,0.0152466173,-0.00279786673,-0.167057336
10.12,1.57540077,-2.04391398,-9.73081388,0.014902708,-0.00260997746,-0.166110165
10.14,1.25663454,-1.79667981,-9.48960441,0.014820635,-0.00245555227,-0.16577924
10.16,1.51805442,-2.01111919,-9.79775206,0.0148462348,-0.00269748335,-0.16505037
10.18,1.44285009,-1.94274933,-9.71178749,0.0149052039,-0.00261339605,-0.163881126
10.2,1.58569698,-2.04079247,-9.74005131,0.0144454231,-0.0027324807,-0.163846062
10.22,1.47355954,-2.01303324,-9.63814798,0.0148463085,-0.00298442592,-0.162976656
10.24,1.41885269,-2.08106631,-9.55368593,0.0147586886,-0.00277155816,-0.163379078
10.26,1.30600515,-1.4994049,-9.56690916,0.014621326,-0.00310846513,-0.161217814
10.28,1.47777119,-1.81560424,-9.59693999,0.0146365237,-0.00238547148,-0.162239857
10.3,1.36265434,-1.52365441,-9.64037148,0.0144259653,-0.00275292436,-0.161509765
10.32,1.38260244,-2.13212292,-9.79203804,0.0142893834,-0.00242445461,-0.159729077
10.34,1.52775743,-1.77380764,-9.30486558,0.0143529383,-0.00304424294,-0.159929499
10.36,1.33324721,-2.22068452,-9.44712417,0.014018331,-0.0028184085,-0.159847413
10.38,1.50517837,-1.69933043,-9.68487625,0.0143990088,-0.00275092932,-0.159304996
10.4,1.34126077,-1.6029458,-9.65496481,0.0142573135,-0.0028164853,-0.158419132
10.42,1.61149536,-2.10972874,-9.80937601,0.0137612013,-0.00312796378,-0.15720103
10.44,1.45362595,-1.85562101,-9.80709915,0.0138947792,-0.00283255483,-0.157223662
10.46,1.52729097,-1.67609732,-9.51992748,0.0139873346,-0.00273541701,-0.156832632
10.48,1.42602803,-1.56744722,-9.75622959,0.0140636489,-0.00267405068,-0.155494116
10.5,1.46659269,-1.91065543,-9.6231695,0.0137298713,-0.00277472951,-0.155368187
10.52,1.45399701,-1.86390414,-9.52080668,0.0142328206,-0.00285044452,-0.155355241
10.54,1.4055867,-1.94544732,-9.7886659,0.0138046473,-0.00294024417,-0.154945056
10.56,1.46601754,-1.66778327,-9.57571114,0.0135440097,-0.00280880995,-0.15432683
10.58,1.58021185,-2.18243785,-9.50816709,0.0135619316,-0.00294513814,-0.15276944
10.6,1.34591558,-1.79798362,-9.63741106,0.0137825724,-0.0030047884,-0.152652265
10.62,1.64230244,-1.73234774,-9.72873648,0.0133479722,-0.00293740298,-0.152745132
10.64,1.31422941,-1.78252828,-9.48077986,0.0135582479,-0.00302521816,-0.151420862
10.66,1.46985749,-2.05217671,-9.6049033,0.0132633869,-0.00283569864,-0.150372776
10.68,1.57400924,-1.81502441,-9.47681232,0.013803583,-0.00302407639,-0.150672987
10.7,1.5058512,-1.84246531,-9.65496618,0.0133078226,-0.0029725859,-0.149723501
10.72,1.33517623,-2.15358407,-9.68024177,0.0131267152,-0.00253171421,-0.148650754
10.74,1.5397318,-2.04071369,-9.56070527,0.0128582412,-0.0028069226,-0.148807216
10.76,1.37722334,-1.50561391,-9.51249748,0.0133538798,-0.00267395116,-0.14816245
10.78,1.65398633,-1.66670804,-9.53621309,0.0129995798,-0.00307925161,-0.148337431
10.8,1.63403056,-1.66475652,-9.65321171,0.0130809871,-0.00274232653,-0.147696395
10.82,1.52121618,-1.5924094,-9.51069915,0.0129049625,-0.00266766704,-0.147138784
10.84,1.41222857,-1.78751468,-9.49094923,0.0130212887,-0.00275084383,-0.145095175
10.86,1.48344223,-1.89529328,-9.63860133,0.0127441524,-0.00278919304,-0.144988365
10.88,1.38192818,-2.21058599,-9.53890926,0.013184566,-0.00290041872,-0.144871478
10.9,1.49340999,-1.61836318,-9.60621049,0.0129104252,-0.00278455575,-0.145407041
10.92,1.38012533,-1.94244645,-9.50569817,0.0126192007,-0.00261722185,-0.14371287
10.94,1.4556111,-1.89938674,-9.64654887,0.0126311436,-0.00287344683,-0.14324018
10.96,1.40170597,-1.50966905,-9.54363312,0.0129859966,-0.00312811586,-0.143320339
10.98,1.44332343,-1.49343121,-9.69552543,0.0122970782,-0.00283901571,-0.142530247
11,1.37446659,-1.71950153,-9.67374643,0.011958845,-0.00301666572,-0.142267759
11.02,1.55321946,-1.75593792,-9.65643011,0.0121140888,-0.00292815388,-0.140722345
11.04,1.48762548,-1.92069281,-9.72275833,0.0124373899,-0.00322985211,-0.139829354
11.06,1.4157574,-1.22306318,-9.8208501,0.0120618101,-0.00272624346,-0.140528538
11.08,1.36947267,-1.76334752,-9.6640166,0.0118887694,-0.00294853679,-0.13895323
11.1,1.50247879,-1.46452302,-9.61103629,0.0119902823,-0.00240659455,-0.137941867
11.12,1.35009096,-1.60299937,-9.6276151,0.0119316915,-0.00280132735,-0.138439692
11.14,1.43596503,-1.53737277,-9.62914626,0.0120102034,-0.00265158572,-0.137900797
11.16,1.45920574,-1.61619605,-9.61984772,0.011635352,-0.00270099606,-0.1373087
11.18,1.34038783,-1.61565913,-9.52871757,0.0118626166,-0.00282253233,-0.135989678
11.2,1.32584791,-1.61471068,-9.52941121,0.0116029051,-0.002605272,-0.135385983
11.22,1.50394792,-1.6987576,-9.72824865,0.0116285857,-0.0031359178,-0.135357649
11.24,1.46985978,-1.85326402,-9.57255206,0.0115425526,-0.00258315741,-0.134292915
11.26,1.26019805,-1.83481005,-9.88466433,0.0118718975,-0.00268239695,-0.133751787
11.28,1.42507646,-1.48524551,-9.73086808,0.0117109145,-0.00269934634,-0.133633406
11.3,1.30684617,-1.72745089,-9.70532382,0.0115083875,-0.0029019361,-0.133239453
11.32,1.31896305,-1.55806929,-9.67197539,0.0111130318,-0.00276930885,-0.132771533
11.34,1.57039014,-1.84114105,-9.83609143,0.0112384489,-0.0027368706,-0.131082594
11.36,1.51128515,-1.35564794,-9.79702079,0.0111346018,-0.00289982966,-0.132071834
11.38,1.39957887,-1.51457672,-9.57591303,0.0114874483,-0.00257316624,-0.131058657
11.4,1.44834981,-1.42331032,-9.65781061,0.0105895741,-0.00279773504,-0.13037938
11.42,1.44066554,-1.79773492,-9.75154039,0.0109749989,-0.00261124906,-0.129541187
11.44,1.51389444,-1.98079444,-9.5998425,0.0113763391,-0.00277821468,-0.129608214
11.46,1.36675876,-1.62999299,-9.67801629,0.0112251422,-0.00245883714,-0.128056281
11.48,1.36480422,-1.625462,-9.66805586,0.0108345631,-0.00234211424,-0.128016702
11.5,1.38106672,-1.54518708,-9.56114334,0.0112840493,-0.00266303611,-0.127252378
11.52,1.24155723,-1.49606227,-9.64025774,0.0110096989,-0.00298131508,-0.127199334
11.54,1.46261411,-1.80170308,-9.50510263,0.0107941387,-0.00231509519,-0.125632683
11.56,1.18388385,-1.44467176,-9.42159903,0.0107956934,-0.00250787545,-0.126098301
11.58,1.34971416,-1.61101088,-9.5169724,0.0112136167,-0.00260989693,-0.125855575
11.6,1.43187634,-1.43265726,-9.76544839,0.0107678199,-0.00254574157,-0.124297465
11.62,1.48361271,-1.85879313,-9.63487919,0.0107441143,-0.00280780666,-0.12381633
11.64,1.45707041,-1.63310337,-9.76268312,0.0104817736,-0.00250639504,-0.123451512
11.66,1.448347,-1.45128659,-9.53927714,0.0103775232,-0.00259452883,-0.123193192
11.68,1.52591791,-1.35595086,-9.63660201,0.0106171908,-0.00236375785,-0.122716147
11.7,1.54908148,-1.62150593,-9.52061179,0.010224756,-0.0024992784,-0.12180047
11.72,1.51143233,-1.31693228,-9.76181889,0.010577059,-0.00269780249,-0.121712831
11.74,1.43938304,-1.45617733,-9.7285665,0.0105506186,-0.00250705162,-0.119742419
11.76,1.60738907,-1.43016868,-9.53862852,0.0104974033,-0.00225975495,-0.120863838
11.78,1.50724908,-1.61748706,-9.66169489,0.0102565931,-0.00258361699,-0.119663327
11.8,1.47096981,-1.85079562,-9.63322168,0.0102741731,-0.00251224417,-0.119759497
11.82,1.45319718,-1.37582933,-9.63749981,0.0100434194,-0.00231448988,-0.118742499
11.84,1.45085382,-1.57723562,-9.57107495,0.0100571792,-0.00268238581,-0.118273595
11.86,1.33995042,-1.56206043,-9.54608425,0.00987695077,-0.00244505795,-0.117078211
11.88,1.44572369,-1.08607088,-9.72321363,0.010489246,-0.00225594303,-0.116831419
11.9,1.40833672,-1.68992883,-9.68824006,0.0102413419,-0.00256340579,-0.116512699
11.92,1.32320621,-1.20538701,-9.34013303,0.00966089325,-0.00252265706,-0.115995471
11.94,1.47884428,-1.58393749,-9.69002898,0.00972453125,-0.00247299123,-0.115605397
11.96,1.60645599,-1.35254097,-9.56223177,0.00958646018,-0.00205453409,-0.114701173
11.98,1.60833729,-1.14259085,-9.57681886,0.00958814386,-0.00212956511,-0.113514097
12,1.50206127,-1.46189881,-9.45557841,0.00990111818,-0.00237241892,-0.113573196
12.02,1.3347054,-1.55151569,-9.69847287,0.00961998286,-0.00257984328,-0.11300799
12.04,1.2602385,-1.63031427,-9.57728428,0.00933925318,-0.00210573918,-0.113009472
12.06,1.26652965,-1.19049556,-9.49286185,0.00930108869,-0.00211117618,-0.11264444
12.08,1.49562407,-1.42830016,-9.58619917,0.00903267513,-0.00244379772,-0.11112497
12.1,1.41216421,-1.36468089,-9.71591504,0.00949949063,-0.00190547345,-0.111401528
12.12,1.23094414,-1.48494113,-9.79429049,0.00942621274,-0.00203704228,-0.111397201
12.14,1.31791877,-1.50683632,-9.71612653,0.00956501382,-0.00172809039,-0.109683406
12.16,1.37437405,-1.525646,-9.58420373,0.00919919477,-0.00209815579,-0.109362351
12.18,1.24189731,-1.34117285,-9.66207546,0.00926474867,-0.00195844004,-0.109620212
12.2,1.31804367,-0.948131789,-9.54650467,0.00924564098,-0.00187403759,-0.108726465
12.22,1.5914503,-1.22357808,-9.56377984,0.00895016093,-0.00193946596,-0.107938488
12.24,1.31885343,-1.49727321,-9.55092937,0.00902467326,-0.00150304175,-0.107541602
12.26,1.37356505,-1.56052259,-9.63075714,0.00918286461,-0.00198257265,-0.107570487
12.28,1.29199784,-1.76469291,-9.45525551,0.0090047882,-0.0021127854,-0.106176825
12.3,1.27698489,-1.13341901,-9.58470054,0.00918668267,-0.00225423413,-0.106003004
12.32,1.41658632,-1.22892042,-9.56263801,0.00924749143,-0.0018044815,-0.105805058
12.34,1.39673644,-1.40379849,-9.5815236,0.00855279379,-0.00198309146,-0.105374433
12.36,1.29503552,-1.5139732,-9.61012549,0.00846437197,-0.00207405784,-0.104320948
12.38,1.44787002,-1.25798413,-9.56663862,0.00910251284,-0.001877919,-0.104355826
12.4,1.26826408,-1.5575234,-9.65320203,0.00891560052,-0.00207301387,-0.103581233
12.42,1.37003301,-1.46159338,-9.69913352,0.00852936504,-0.00157469554,-0.10228156
12.44,1.58243899,-1.22505686,-9.72822929,0.00857669033,-0.0013227778,-0.102465888
12.46,1.24803266,-1.31119487,-9.67286506,0.00825957477,-0.00150735287,-0.102536534
12.48,1.49780841,-1.60219204,-9.69344947,0.00844922524,-0.00199165206,-0.101920763
12.5,1.49018453,-1.52621157,-9.46361564,0.00850416193,-0.00163087711,-0.100321219
12.52,1.30220063,-1.5933901,-9.60558489,0.00859891691,-0.00189955556,-0.100368852
12.54,1.16288435,-1.02954037,-9.73642137,0.00831046433,-0.00152651667,-0.100467429
12.56,1.36358351,-1.28164662,-9.69710714,0.00826331366,-0.00168021975,-0.0986655084
12.58,1.26159252,-1.22407669,-9.54072907,0.00828736385,-0.00103902992,-0.0990170094
12.6,1.24301926,-1.53003738,-9.68313148,0.00820301105,-0.00129772833,-0.0985514408
12.62,1.25026249,-1.14378358,-9.65255756,0.00832366053,-0.00166468118,-0.0974754694
12.64,1.28349065,-1.27837329,-9.76282044,0.00815604718,-0.00204723422,-0.0981150267
12.66,1.29968982,-1.2484827,-9.55701302,0.00806782763,-0.0015801433,-0.0973459243
12.68,1.41808758,-1.11500851,-9.84428979,0.00834007742,-0.00152886437,-0.0962369464
12.7,1.44575388,-1.30910084,-9.82543278,0.00801420702,-0.00153419044,-0.0953001674
12.72,1.37048796,-1.32975051,-9.73734493,0.00802793037,-0.00177203101,-0.0951927838
12.74,1.2571213,-1.54053505,-9.67134726,0.00827570279,-0.00143730781,-0.0948866309
12.76,1.21919135,-0.93104541,-9.59788776,0.00758329295,-0.00137010657,-0.0942771746
12.78,1.35886743,-1.42203571,-9.82146903,0.00793535326,-0.00149183972,-0.0938780861
12.8,1.33222177,-1.31428248,-9.73122414,0.00771115556,-0.00168018334,-0.0932771102
12.82,1.24098066,-1.11927793,-9.54532322,0.00767744915,-0.00141774535,-0.0926741561
12.84,1.35077463,-0.932818725,-9.62752714,0.00793449591,-0.00161059573,-0.0925290081
12.86,1.27642345,-1.11461389,-9.55621591,0.0076406862,-0.00130272291,-0.0920245777
12.88,1.28692305,-1.2715087,-9.70296843,0.00739063528,-0.001246566,-0.0910073027
12.9,1.20020145,-1.1962541,-9.64322867,0.00745986077,-0.0013834678,-0.0910965528
12.92,1.14968863,-1.27494064,-9.80865238,0.00756886325,-0.00128649294,-0.0904228438
12.94,1.23931912,-1.13273606,-9.5565047,0.00778978828,-0.0014583832,-0.0894816524
12.96,1.25366572,-1.62646598,-9.75460321,0.0073865553,-0.00153982281,-0.0890706676
12.98,1.28393857,-1.13316337,-9.72175232,0.0075954667,-0.00128845012,-0.0887962789
13,1.19160749,-1.00013482,-9.65089365,0.00755295364,-0.00125154481,-0.0887945866
13.02,1.16347817,-0.980374773,-9.58235668,0.00724764207,-0.00139865171,-0.0877863289
13.04,1.30665545,-1.15641568,-9.58595299,0.00715207024,-0.000878909253,-0.08735245
13.06,1.16847387,-1.22702485,-9.54730293,0.00744281937,-0.001179837,-0.0876689934
13.08,1.26822593,-1.33528055,-9.61931844,0.00712533221,-0.000932050105,-0.0869769317
13.1,1.14845445,-1.18669819,-9.57908926,0.00731886211,-0.000726758056,-0.0868692844
13.12,1.19565236,-1.19949458,-9.70460797,0.00758993794,-0.00122974887,-0.0859269206
13.14,1.32941661,-0.988248662,-9.60771708,0.00733520931,-0.00108161278,-0.0862590586
13.16,1.29117889,-1.25843721,-9.88076159,0.00704683845,-0.00113561437,-0.0849299044
13.18,1.05591458,-1.32020161,-9.64625562,0.00720979485,-0.00114745187,-0.0842277346
13.2,1.23627801,-1.20942842,-9.8290658,0.00717404343,-0.000858246415,-0.084254323
13.22,1.27047316,-0.779061089,-9.52035927,0.00714525427,-0.00127532222,-0.0838714826
13.24,1.17654652,-0.830536705,-9.5414618,0.00703934948,-0.00101954411,-0.0827632874
13.26,1.1052442,-1.43130205,-9.79934607,0.0071082728,-0.000952394688,-0.082954283
13.28,1.10523166,-0.99607718,-9.73658715,0.0065847053,-0.000965849928,-0.0823193019
13.3,1.17129807,-0.801489972,-9.61743306,0.00680580493,-0.000512915771,-0.081579679
13.32,1.17623733,-1.22235143,-9.60279057,0.0067721653,-0.00110197151,-0.0810747881
13.34,1.29387582,-1.22055671,-9.82483006,0.00701461418,-0.00100625833,-0.080731588
13.36,1.23647797,-1.31550172,-9.50588994,0.00665384511,-0.000776309284,-0.0796717038
13.38,1.30584868,-0.842710051,-9.64906878,0.00632307481,-0.000628875888,-0.0799814199
13.4,1.32867614,-1.0897669,-9.58565039,0.00642667399,-0.000671886072,-0.0795268796
13.42,1.102715,-0.931571541,-9.53612814,0.00670386975,-0.000910568984,-0.0792460441
13.44,1.04936086,-1.46131233,-9.65013254,0.00663160748,-0.00084338827,-0.0788740747
13.46,1.28612075,-0.797054589,-9.83007025,0.0067432348,-0.000613185241,-0.0783028746
13.48,1.24005659,-0.702211541,-9.54154513,0.00683123337,-0.000968796902,-0.0776824913
13.5,1.00591149,-1.05024633,-9.53049203,0.00638923876,-0.00086933845,-0.076949566
13.52,1.20935234,-0.745803845,-9.59647634,0.00623071174,-0.000582430672,-0.0766653615
13.54,1.08257891,-0.945840808,-9.72802976,0.00655145489,-0.000689682625,-0.0763058889
13.56,1.21614638,-1.14364955,-9.48308222,0.00636924124,-0.000855087971,-0.0756727254
13.58,0.992996034,-1.13163519,-9.46708324,0.00656034986,-0.00104160661,-0.0754017424
13.6,1.12510168,-0.889321623,-9.68582062,0.00609892886,-0.00118056789,-0.0749479392
13.62,1.05238144,-1.01490494,-9.72068472,0.00620286683,-0.000524733043,-0.0745132664
13.64,1.12856036,-1.1182222,-9.50691012,0.00594889507,-0.000663037742,-0.0748580777
13.66,1.00515252,-0.807506017,-9.59989687,0.00623678659,-0.000639663759,-0.0730600269
13.68,1.30470526,-0.794804863,-9.53816496,0.00609489189,-0.000391431833,-0.0741051131
13.7,0.77949727,-0.951409982,-9.58872222,0.0060962687,-0.000417801498,-0.0729723828
13.72,1.04915417,-1.01754775,-9.79717389,0.00600907728,-0.000682555736,-0.0717068712
13.74,1.09798895,-1.13444066,-9.7078681,0.00629839106,-0.000613726164,-0.0720311845
13.76,1.23093582,-1.03901262,-9.7058334,0.00589215725,-0.000364253813,-0.0710685663
13.78,0.954090814,-0.83869779,-9.79944376,0.00619553045,-0.000221759082,-0.0714999275
13.8,0.826719104,-1.33768986,-9.73056435,0.00623098816,-0.000223230094,-0.0707400775
13.82,1.08005529,-0.960325605,-9.56655527,0.005378996,-9.13970043e-05,-0.0704215143
13.84,1.0297297,-1.16146543,-9.6158607,0.00593892809,-0.000156823841,-0.0704333527
13.86,1.10723403,-1.06101997,-9.66521502,0.00617122766,-7.66075518e-05,-0.0691649496
13.88,1.04007995,-1.15916506,-9.51133114,0.00609006666,-2.21316635e-05,-0.0690873839
13.9,0.845552172,-0.784308202,-9.80894952,0.00598152457,-1.51759066e-05,-0.0682514907
13.92,1.12891806,-1.23444297,-9.56376681,0.00581323479,6.68228738e-06,-0.0677783369
13.94,0.857053697,-1.02684272,-9.74538805,0.0055163109,-0.000259892171,-0.0678983843
13.96,1.22732857,-0.999852519,-9.71082201,0.00566064072,1.14173173e-05,-0.0672430666
13.98,1.04971333,-1.03057702,-9.53611548,0.00555991181,-0.000224520531,-0.0664910704
14,0.993726615,-0.822742968,-9.81913484,0.00550650695,1.46579443e-05,-0.0663786505
14.02,0.945804495,-0.73265823,-9.75265354,0.00609402838,-5.2972461e-05,-0.065533304
14.04,0.921284945,-0.988815011,-9.67083555,0.00572515909,8.57895865e-06,-0.0650666957
14.06,0.839502391,-0.760120063,-9.63193001,0.0054243989,0.000234380738,-0.0657541911
14.08,0.898227165,-0.998155119,-9.55274014,0.00569515231,0.000261163826,-0.0644162938
14.1,1.11105071,-0.64110909,-9.87955324,0.00494356116,0.00027149201,-0.0645629116
14.12,0.939458849,-0.970800184,-9.67458795,0.00556987864,0.000169258526,-0.0636547943
14.14,0.900891407,-0.458576186,-9.71991127,0.00547620024,0.000367696096,-0.0630346714
14.16,1.06670834,-0.809976269,-9.55754318,0.00531429898,0.000327854201,-0.0629183505
14.18,0.837953028,-0.715824284,-9.78445585,0.00542539035,0.000308187273,-0.0623357195
14.2,1.01191552,-1.02964086,-9.64701071,0.00489833396,0.000562914317,-0.0621543117
14.22,0.755621992,-0.955242753,-9.72097376,0.00545824507,0.000426762688,-0.0616395835
14.24,1.07651794,-1.36797629,-9.6533881,0.00522143616,0.000133473381,-0.06132664
14.26,1.07642192,-0.531007859,-9.64681152,0.00538928704,5.40014638e-05,-0.0607434171
14.28,0.855848971,-0.789092316,-9.72296143,0.00525927673,0.000590295074,-0.0600043863
14.3,0.941694326,-0.841132256,-9.56694754,0.00533409427,0.000496959969,-0.0596882835
14.32,0.912483875,-0.917564894,-9.7239312,0.00538632241,0.000634349658,-0.0600076703
14.34,0.742847062,-0.99490587,-9.51662888,0.00491539708,0.000367259909,-0.0591549309
14.36,0.828740109,-0.910869301,-9.57963267,0.00513203454,0.000627807338,-0.0594690639
14.38,0.933276279,-0.70208795,-9.48540061,0.00512771991,0.000569031167,-0.0582958914
14.4,1.10830887,-0.577572738,-9.68489857,0.00498372392,0.000428847028,-0.0579092497
14.42,0.738363907,-0.878686405,-9.54975824,0.00486151014,0.000435591575,-0.057470978
14.44,0.813398195,-0.551165716,-9.63038653,0.00510536024,0.000202835966,-0.0579284193
14.46,1.10028406,-0.861113226,-9.62782195,0.00472765339,0.000365803013,-0.0571647976
14.48,0.978881333,-0.815048223,-9.62470959,0.00467451503,0.000821462555,-0.056544589
14.5,1.00019634,-0.450007771,-9.60777189,0.0044839558,0.000656731553,-0.0554275173
14.52,0.860784138,-0.845851576,-9.673843,0.00505916973,0.000776747328,-0.0551944738
14.54,0.849922406,-0.764094714,-9.61682642,0.0046511506,0.000945607138,-0.0545747966
14.56,0.758089399,-0.678395963,-9.54907432,0.004738955,0.000967855251,-0.0553015096
14.58,0.846066863,-0.501651906,-9.72441145,0.00480540944,0.000693871087,-0.0540870437
14.6,0.776681884,-0.868220031,-9.71833628,0.00489276841,0.000745168419,-0.0539873608
14.62,0.801038128,-1.14118664,-9.68518175,0.00403504277,0.000906724421,-0.0533105992
14.64,0.974698795,-0.491716562,-9.62878286,0.0042774349,0.000805783281,-0.0533508053
14.66,0.869340932,-0.890887039,-9.47475659,0.00476133924,0.000683905857,-0.0521440064
14.68,0.795903606,-0.515372471,-9.69881565,0.0045079613,0.000735202217,-0.0518847752
14.7,0.906067756,-1.21570757,-9.62787453,0.00494476455,0.000613262302,-0.0518149474
14.72,0.72830505,-0.615121667,-9.72586486,0.00442325459,0.00124597791,-0.051343563
14.74,0.70748162,-0.780011156,-9.53864869,0.00450846097,0.000959276479,-0.0513113374
14.76,0.936646517,-0.337626114,-9.83340958,0.00434346554,0.000813980662,-0.0509087907
14.78,0.976221416,-0.97392089,-9.58128407,0.00448665031,0.000809502834,-0.0497514828
14.8,0.730964504,-0.590912809,-9.6617092,0.00430289469,0.00124322894,-0.050334495
14.82,0.862226645,-0.28587283,-9.73324608,0.00437548847,0.00124570849,-0.0501020471
14.84,0.752697895,-0.578555993,-9.61245437,0.00419195197,0.000741144435,-0.0490669925
14.86,0.809561106,-0.705523774,-9.58124493,0.00437300989,0.00125193274,-0.0481203226
14.88,0.889227633,-0.847513926,-9.65131608,0.00433460597,0.001557559,-0.047940655
14.9,0.827234352,-0.790374746,-9.65255486,0.00410686348,0.000945072391,-0.048044483
14.92,0.68176777,-0.738767497,-9.63354766,0.0042985822,0.00110263607,-0.0477061173
14.94,0.683709373,-0.614478271,-9.71916235,0.00413949809,0.000814901816,-0.0470591267
14.96,0.672610025,-0.926957335,-9.70250843,0.00451944911,0.00105311374,-0.0469224369
14.98,0.919835995,-0.655569732,-9.67604797,0.00403629477,0.00138232014,-0.0464803721
15,0.651534783,-0.34914563,-9.82667924,0.0042798621,0.00104475561,-0.0458672276
15.02,0.639741351,-0.864047485,-9.64468741,0.00384981219,0.00139225108,-0.0451445877
15.04,0.776775689,-0.519422302,-9.67362968,0.00421814907,0.00164471328,-0.0453953401
15.06,0.713113318,-0.205263914,-9.79631018,0.00402706044,0.00143258577,-0.0442801477
15.08,0.729245553,-0.255533472,-9.66143663,0.00424628049,0.00127950374,-0.0441274379
15.1,0.707730226,-0.63334098,-9.68939192,0.00393649542,0.00143200898,-0.0433193239
15.12,0.73882699,-0.461955652,-9.65229406,0.00391247678,0.00147781866,-0.0435538882
15.14,0.554729542,-0.551255774,-9.69042009,0.00367484842,0.00150500335,-0.0427918339
15.16,0.702817101,-0.677823756,-9.6643303,0.00387689397,0.00142396215,-0.0423241855
15.18,0.810693798,-0.450166873,-9.73914144,0.00385895578,0.00183334318,-0.0427291732
15.2,0.69086211,-0.773750426,-9.60312286,0.00351878073,0.00157857901,-0.041577896
15.22,0.659856887,-0.697944996,-9.7127509,0.00383228995,0.00174068194,-0.0417033601
15.24,0.708138202,-0.881542422,-9.71687721,0.00398258208,0.00144716968,-0.0405755413
15.26,0.569023854,-0.778436372,-9.47334066,0.0039288395,0.0016573994,-0.0406023871
15.28,0.744301691,-0.16518928,-9.67982226,0.00364318024,0.00152814244,-0.0400583624
15.3,0.512810425,-0.56611263,-9.68708156,0.003832824,0.00152670446,-0.040274383
15.32,0.610709811,-0.72998021,-9.57629739,0.00376348426,0.00202010573,-0.0394897258
15.34,0.688116537,-0.531456452,-9.68667403,0.00370042008,0.00156482586,-0.0392941998
15.36,0.878359437,-0.325362268,-9.57953205,0.00382008704,0.00218953759,-0.0383392167
15.38,0.581633531,-0.564770416,-9.85526003,0.00357956162,0.00172495201,-0.0388344204
15.4,0.683565613,-0.651406187,-9.8018707,0.00362861337,0.00197793424,-0.0376848137
15.42,0.521971282,-0.722574102,-9.72220498,0.00333802351,0.00194595746,-0.0383799529
15.44,0.647141666,-0.907896131,-9.6959254,0.00325987742,0.00149354291,-0.0368683431
15.46,0.606396673,-0.567232551,-9.61020486,0.00385825408,0.00194678716,-0.0368845639
15.48,0.598065668,-0.327499155,-9.62623289,0.00336334923,0.00172908616,-0.0361442083
15.5,0.610704054,-0.429825785,-9.74190524,0.00346814514,0.00198827678,-0.0362539758
15.52,0.650808309,-0.245375844,-9.75589264,0.00339668951,0.0022703606,-0.035997125
15.54,0.676189539,-0.586494914,-9.49049387,0.00286654956,0.00239372,-0.0349421305
15.56,0.660040129,-0.644014935,-9.72752728,0.00349402632,0.00188378651,-0.0352706462
15.58,0.41315466,-0.391792786,-9.60549142,0.00313460079,0.00207226018,-0.0347853219
15.6,0.506505279,-0.53697904,-9.75957285,0.00316416087,0.00181148385,-0.0335482972
15.62,0.414435908,-0.656623078,-9.80507395,0.00319520239,0.00184363917,-0.0335566842
15.64,0.464279215,-0.689201666,-9.79801111,0.00308004066,0.0024365432,-0.0333241655
15.66,0.540007594,-0.689245665,-9.77175981,0.0034451168,0.00172170584,-0.0326303083
15.68,0.47546217,-0.527339663,-9.75517435,0.0033816513,0.00217694749,-0.0321060563
15.7,0.536863156,-0.469599676,-9.62415991,0.00304275468,0.0022617299,-0.0323904507
15.72,0.517548412,-0.398087401,-9.72256205,0.0031016856,0.00240741493,-0.0318590691
15.74,0.587672137,-0.428992509,-9.77907084,0.00336707084,0.00203237366,-0.0313466154
15.76,0.317904563,-0.594359026,-9.73806468,0.00294192112,0.00251368833,-0.031194121
15.78,0.667403182,-0.338826007,-9.75611919,0.00299024105,0.00198432358,-0.0307292029
15.8,0.550550685,-0.478802166,-9.62273155,0.00258929454,0.00210411221,-0.0295910152
15.82,0.418883131,-0.129908992,-9.67987573,0.00284709847,0.00248108958,-0.0299070629
15.84,0.530893914,-0.663226354,-9.65311249,0.00297354847,0.00271746458,-0.0294866027
15.86,0.557969004,-0.189880127,-9.59977653,0.00294764443,0.00257925937,-0.0288380152
15.88,0.432641934,-0.523891428,-9.80890557,0.00294753562,0.00258332635,-0.0287601884
15.9,0.440438833,-0.142290143,-9.578735,0.00315931907,0.00230191087,-0.027474405
15.92,0.350610439,-0.288843719,-9.69259499,0.00319489915,0.00262231011,-0.0271483428
15.94,0.581608981,0.103000592,-9.90091146,0.00329844163,0.00278504542,-0.0278410558
15.96,0.494194522,-0.537649566,-9.59974695,0.00261027282,0.00289364961,-0.0272987152
15.98,0.45713894,-0.234287276,-9.72304293,0.00272950865,0.00299061275,-0.0263905293
16,0.345830318,-0.575437249,-9.5931498,0.00227276901,0.0028565037,-0.0261966113
16.02,0.492267676,-0.405477064,-9.72729588,0.0026824836,0.00242395575,-0.0251486816
16.04,0.489727117,-0.304309656,-9.6924778,0.00266061768,0.00304701429,-0.0250204455
16.06,0.43418454,-0.460805519,-9.67260562,0.00239612974,0.00252232718,-0.025337976
16.08,0.506084419,-0.416132866,-9.77335714,0.00224668216,0.00292996406,-0.0239993635
16.1,0.354866722,-0.648242297,-9.56566381,0.00279993523,0.00280407026,-0.0235025026
16.12,0.481610435,-0.0260541668,-9.60644096,0.00276558298,0.00277114776,-0.0237173106
16.14,0.513859797,-0.425902635,-9.76958206,0.00257478824,0.00314052471,-0.0240544079
16.16,0.349018623,-0.348097671,-9.85899616,0.00245839043,0.00319149974,-0.022265002
16.18,0.434669758,-0.515060162,-9.5898139,0.00229485282,0.0030567182,-0.0219501909
16.2,0.368893627,-0.15944711,-9.6263018,0.00245869816,0.00272099275,-0.0224967552
16.22,0.428195853,-0.269803214,-9.67146245,0.00260906046,0.00336031148,-0.0219074601
16.24,0.407555691,-0.30365805,-9.52461185,0.00252041961,0.00335087731,-0.0208719555
16.26,0.517594102,-0.223461062,-9.737665,0.00262357539,0.00302914403,-0.0212869517
16.28,0.234197514,-0.19111911,-9.56684385,0.00225570069,0.0030195761,-0.0198148553
16.3,0.479845413,-0.16336955,-9.7738769,0.00213297237,0.00295925047,-0.0195963173
16.32,0.431007605,-0.509388501,-9.79507947,0.00213290701,0.00336542533,-0.0203349606
16.34,0.413020828,-0.077182769,-9.73987791,0.00224155845,0.00328947389,-0.0190354647
16.36,0.421363169,-0.586143365,-9.72191369,0.00208265546,0.00321117528,-0.0196816179
16.38,0.306466395,-0.457977494,-9.59007856,0.00177333162,0.00324532806,-0.0182921801
16.4,0.437914248,-0.463348382,-9.56926172,0.00231416116,0.00350239261,-0.0173594238
16.42,0.457023498,-0.309579145,-9.69474788,0.00223596321,0.00305019872,-0.0171491957
16.44,0.387639704,-0.479313105,-9.63857412,0.0020753743,0.0031868423,-0.0172191533
16.46,0.263941959,0.114041158,-9.83767875,0.0019590165,0.00299523687,-0.0175016596
16.48,0.21678476,-0.223523612,-9.51171006,0.00231964589,0.00344890639,-0.0165078067
16.5,0.371216269,-0.289901999,-9.72063646,0.0022728856,0.0036447207,-0.0160034025
16.52,0.4071594,-0.0551471825,-9.87457916,0.00191415768,0.00315951251,-0.0146322506
16.54,0.449812142,-0.151561315,-9.70103098,0.00181766335,0.0030042985,-0.0164039411
16.56,0.284716229,-0.247306376,-9.78958103,0.00217101681,0.00335670036,-0.0144520454
16.58,0.329975493,-0.513764497,-9.79716326,0.00207337108,0.00367579626,-0.0150353549
16.6,0.488588334,-0.0424851146,-9.66379654,0.00191759816,0.00320635593,-0.0141364965
16.62,0.468311011,-0.761730346,-9.60577739,0.00180940162,0.00343881252,-0.013413039
16.64,0.153192843,-0.212881854,-9.82215158,0.00177417986,0.00366554928,-0.013108581
16.66,0.184955978,0.0333592343,-9.88823585,0.00189935165,0.00356207849,-0.0126452704
16.68,0.337047591,0.113866956,-9.64430607,0.00181814459,0.00369724123,-0.0127285637
16.7,0.272411593,-0.178979719,-9.67108616,0.00176891996,0.00376009072,-0.0116979983
16.72,0.355866985,-0.128051954,-9.71641291,0.00170916181,0.00355811317,-0.0111662729
16.74,0.2504333,-0.233064974,-9.78887293,0.00176612746,0.00341785466,-0.0108676088
16.76,0.331472873,-0.160947236,-9.75668636,0.00166032614,0.00407618225,-0.0104370006
16.78,0.0670558178,-0.0542694779,-9.62529451,0.00182848803,0.00388939995,-0.00971145594
16.8,0.425222956,-0.0759087063,-9.71443563,0.00167865247,0.00397619925,-0.00957301113
16.82,0.277924403,-0.332869083,-9.64422188,0.00149886092,0.00403569363,-0.00914283023
16.84,-0.0349416716,-0.119767119,-9.73580537,0.00164186731,0.00370742288,-0.0099175118
16.86,0.377936277,0.105901337,-9.854622,0.00132901046,0.00397148733,-0.00831494377
16.88,0.114172169,-0.173953602,-9.75177864,0.00167756731,0.00392762611,-0.00843729386
16.9,0.111832025,0.01745283,-9.74152282,0.00170606261,0.00400126847,-0.00850045023
16.92,0.223111667,-0.373230607,-9.56707748,0.00118111804,0.00396945345,-0.00598715957
16.94,0.119091102,-0.0553087046,-9.73859529,0.00143045096,0.00436691442,-0.00659344255
16.96,0.0355916887,0.0472535109,-9.796851,0.00109058462,0.00417761357,-0.00680932364
16.98,0.214031751,-0.0497142499,-9.75143857,0.00107174152,0.00424034057,-0.00645311758
17,0.183193954,-0.0516222831,-9.7079995,0.0011598363,0.0039826665,-0.00604560268
17.02,0.390483629,-0.241454794,-9.75133763,0.00146707491,0.00451331211,-0.00615520654
17.04,0.309569476,-0.107941546,-9.63498028,0.000944446558,0.00416275924,-0.00409216464
17.06,0.131589016,0.190652166,-9.58635467,0.00122906048,0.00413171525,-0.00420584364
17.08,0.22238317,0.000811522309,-9.69335474,0.00128187845,0.00417014989,-0.00366448157
17.1,0.144786277,0.0854786176,-9.94896481,0.00140390844,0.00449331005,-0.00328450019
17.12,0.266172224,-0.12302247,-9.84713942,0.000629778148,0.00429597762,-0.00366596038
17.14,0.346439245,0.220662251,-9.77356,0.00111130661,0.0046076356,-0.00233902259
17.16,0.147983014,0.172560593,-9.63087352,0.000890929462,0.00472585414,-0.0020979421
17.18,0.236772758,-0.0617256847,-9.79934898,0.00108661972,0.00465090201,-0.00113069115
17.2,0.0658693562,-0.0565526494,-9.80475614,0.00105112409,0.00490800389,-0.000978611113
17.22,0.20517265,-0.255166311,-9.53304741,0.000948344402,0.00462696978,-0.00119026534
17.24,0.0935044521,0.00422640202,-9.7316415,0.000795598459,0.00440938225,-0.000615671446
17.26,0.359103365,0.377578171,-9.65119501,0.00145469779,0.00454018329,0.000158019503
17.28,0.190869974,0.0439148546,-9.74178805,0.000934049704,0.0046651274,0.000962094947
17.3,0.317218913,0.156304778,-9.85879792,0.00121912421,0.00457413575,0.00130496045
17.32,0.0377063194,0.0964694614,-9.75922429,0.000815503866,0.00456403594,0.0012698504
17.34,0.141353877,0.0413074751,-9.71765254,0.001214519,0.00455081081,0.00169725658
17.36,0.181657617,-0.067779771,-9.82211626,0.000807001321,0.00491907981,0.00273762394
17.38,0.105463474,0.238791694,-9.82970873,0.000610161986,0.00494252549,0.0029837512
17.4,0.195466087,0.218166901,-9.75785353,0.000705706796,0.00509870819,0.00313238841
17.42,0.215551201,-0.113524512,-9.72588498,0.000417767446,0.004951389,0.00392378416
17.44,0.0550432695,0.0249091576,-9.71693899,0.000615229602,0.00505285617,0.00411664452
17.46,0.12446269,0.213456627,-9.79423058,0.000708700702,0.00494642358,0.00528627527
17.48,0.160652088,0.0608372248,-9.89166696,0.000115904755,0.00489979442,0.00515361717
17.5,0.0292088984,0.0782939543,-9.80900359,0.000468407897,0.00542229027,0.00558766379
17.52,0.0604079267,0.0616315832,-9.65837831,0.000376574139,0.00507194144,0.00615735872
17.54,0.335014623,0.327628673,-9.61495623,0.000653161062,0.00522114478,0.00694388374
17.56,0.132106825,0.198548723,-9.94982868,0.000132173639,0.00492474717,0.00720936485
17.58,-0.0394324973,0.00180689098,-9.71289334,0.000491374082,0.00529970128,0.00654678441
17.6,0.215125903,-0.0409067274,-9.72142453,0.000241455037,0.00505610767,0.00796419765
17.62,0.106063082,0.0850352255,-9.53204152,0.000398884905,0.00534720752,0.00912303731
17.64,0.0695350973,0.111428301,-9.84958836,0.00018661703,0.00521051475,0.00932277314
17.66,0.120847727,0.33809839,-9.67467735,0.000569796037,0.00510186924,0.00952268249
17.68,-0.018689113,-0.296411055,-9.65378038,0.0005784422,0.00532631246,0.00935799725
17.7,0.0180955361,0.085407893,-9.8245105,-9.95152478e-05,0.00518359376,0.009268705
17.72,-0.00172523174,-0.0866610603,-9.66286517,-2.32659077e-05,0.00526877534,0.0108647322
17.74,-0.0416900887,-0.155558622,-9.9047145,0.000154290795,0.00489106178,0.012038202
17.76,-0.00941149417,0.0600136451,-9.62556163,-0.0002109972,0.00569095899,0.0119416041
17.78,-0.104656141,0.111080268,-9.65116504,-1.84250755e-05,0.00533016193,0.0123879823
17.8,0.0203755774,0.306151379,-9.71656491,0.000140706547,0.00573567252,0.0130817076
17.82,0.161534292,0.109667934,-9.76591452,-0.000103970859,0.00581564681,0.0136464256
17.84,0.00701480309,0.416534008,-9.87294117,-0.000207964242,0.00575989733,0.0137695018
17.86,-0.126758218,0.362021035,-9.86713183,-0.0004170086,0.00552233488,0.0146866481
17.88,0.282749399,0.281093188,-9.69888839,-0.000307192458,0.00594397631,0.0143973105
17.9,-0.00911257773,0.150869303,-9.57598872,-0.000158007517,0.00595281869,0.0147785055
17.92,0.022775493,0.656152391,-9.82937988,-0.000383311683,0.00572235506,0.0153302068
17.94,0.151467111,0.273280584,-9.72077975,-0.000634192379,0.00539797161,0.0163464589
17.96,0.135741747,0.13449006,-9.71747534,-0.000267250105,0.00529524538,0.0173443997
17.98,0.311425419,-0.0459905939,-9.64135081,-0.000469020595,0.00561811334,0.0174499537
18,-0.143671639,-0.0855091635,-9.67071943,-0.000395713335,0.00575376136,0.0175369558
18.02,0.0643618797,0.348238623,-9.82562099,-0.000558134227,0.00571802729,0.0184589169
18.04,0.15053826,0.177495844,-9.68388108,-0.000688666078,0.0059417738,0.0184502528
18.06,-0.0468064616,0.247258205,-9.84344445,-0.000835908635,0.00647805519,0.0190454953
18.08,0.011304227,0.307055409,-9.76795656,-0.000436124146,0.00601116267,0.0198034434
18.1,-0.0246368529,0.491487653,-9.84055984,-0.000870292827,0.00571504902,0.0209636805
18.12,-0.0210279994,0.00579334936,-9.83109461,-0.00112704269,0.00598602979,0.0215871067
18.14,-0.0701392763,0.524390177,-9.65211634,-0.000865984883,0.00587672862,0.0214012895
18.16,-0.0214137418,-0.231005448,-9.83559562,-0.000563562194,0.00617783098,0.021292844
18.18,-0.016024741,0.198157212,-10.0182425,-0.000631143368,0.00606293108,0.0224869925
18.2,0.133049273,0.225277589,-9.54774415,-0.000810820048,0.00611114362,0.0231399707
18.22,-0.00198720384,0.133980734,-9.65398895,-0.0010890597,0.00627332266,0.0235421479
18.24,0.0426156166,0.643958719,-9.73596314,-0.00104582638,0.00639224182,0.02441499
18.26,-0.0550368984,0.53249908,-9.63119179,-0.00139914514,0.00630793078,0.024695667
18.28,0.0233007845,0.343915618,-9.97473425,-0.00103233469,0.00635789402,0.0250250975
18.3,0.0712925374,0.202571327,-9.68843541,-0.00117094639,0.00655560616,0.0253785087
18.32,0.0103922976,0.494250989,-9.56556804,-0.00123385457,0.00601516443,0.0261903551
18.34,-0.108753554,0.456769029,-9.72722613,-0.00111254927,0.00663719668,0.0267443544
18.36,-0.0643946529,0.262972622,-9.83914397,-0.0012062357,0.00647633321,0.027391629
18.38,-0.0436750187,0.0825785327,-9.65574857,-0.00157141602,0.00659174801,0.0286329699
18.4,-0.116160409,0.183676732,-9.67305796,-0.00147167984,0.00670747666,0.0278763737
18.42,-0.256466874,0.436026516,-9.85190448,-0.00129204819,0.00639893346,0.0284447975
18.44,-0.0347775275,0.725266421,-9.7833572,-0.00121868246,0.00670147114,0.029585343
18.46,0.0576157031,0.466760897,-9.83860767,-0.00164856028,0.00630913909,0.0298991393
18.48,-0.138223207,0.481541521,-9.73310999,-0.00162057699,0.00603086396,0.0300040993
18.5,-0.0578416507,0.471472852,-9.7162827,-0.00103705832,0.00663726008,0.030484077
18.52,-0.0793060733,0.627090251,-9.68294748,-0.00196957403,0.00666315161,0.0316683761
18.54,-0.110396376,0.409630256,-9.78539812,-0.00157506097,0.00694567165,0.0324342504
18.56,0.00696691464,0.410366356,-9.64025964,-0.00195938606,0.00688642964,0.0332201911
18.58,0.144122499,0.285181944,-9.85059629,-0.00164947944,0.00720343348,0.0341101754
18.6,-0.0753594693,0.377340939,-9.68296131,-0.00162941343,0.00683450147,0.0341793173
18.62,0.0575772139,0.671998081,-9.89733714,-0.00168898051,0.00673039546,0.0343284867
18.64,-0.040550433,0.606042817,-9.85712159,-0.00164774509,0.00668262666,0.0354175218
18.66,0.131961251,0.650763123,-9.7402279,-0.00189597571,0.00709879851,0.0352838202
18.68,-0.0314432867,0.211519224,-9.82315703,-0.00175309717,0.00738082416,0.0360066592
18.7,-0.046780089,0.678995956,-9.70258547,-0.00179058713,0.00683741356,0.0369867149
18.72,-0.085268582,0.441061371,-9.87697454,-0.00206418535,0.00703360248,0.0377486748
18.74,-0.127483034,1.00770481,-9.72155081,-0.00234609603,0.00734379732,0.0378249082
18.76,-0.131729238,0.514132625,-9.74433904,-0.00243264661,0.00710814338,0.0387196464
18.78,-0.0584247221,0.437007305,-9.73466979,-0.00272024308,0.00734679564,0.0392081742
18.8,0.0326076073,0.364856906,-9.69742425,-0.00252901851,0.00730828659,0.0395963682
18.82,0.00729635777,0.478115352,-9.76102603,-0.00203579573,0.00737282333,0.0402317082
18.84,-0.104904133,0.418873067,-9.68756203,-0.00252335786,0.00735963818,0.0414891322
18.86,-0.175360491,0.643743668,-9.68203478,-0.00230057402,0.00740461764,0.0416567734
18.88,-0.101635557,0.721675477,-9.89185123,-0.00247873649,0.00746379743,0.04213064
18.9,-0.135808456,0.348106286,-9.72509011,-0.00251526129,0.00750616546,0.0430184861
18.92,-0.211237089,0.321798812,-9.74878942,-0.0026477548,0.00708454245,0.0429977197
18.94,0.0326020095,0.667433246,-9.65456953,-0.00229301722,0.00754890383,0.0438621787
18.96,-0.0325443335,0.705165277,-9.72134476,-0.00258425205,0.00765775632,0.0443985598
18.98,0.0255048714,0.342005589,-9.5681798,-0.0029326954,0.00740270128,0.0454080576
19,-0.0479134269,0.262917251,-9.71781091,-0.0032292177,0.00758123339,0.0456023829
19.02,-0.0571604723,0.516036355,-9.8331602,-0.00302427087,0.00725554062,0.0463004731
19.04,-0.288491721,1.17715577,-9.75069819,-0.00323023018,0.00789370081,0.047562951
19.06,-0.191915037,0.725526003,-9.88421369,-0.0029308462,0.00792738604,0.0480455034
19.08,-0.410693626,0.489790116,-9.78823311,-0.00319985598,0.00774695293,0.0486420089
19.1,-0.120186406,0.597106974,-9.70793041,-0.00315341497,0.00747729885,0.0489381591
19.12,-0.104466476,0.8122188,-9.84550211,-0.00288772423,0.00783413537,0.0498507118
19.14,-0.0710902608,0.588049969,-9.78658769,-0.00292937554,0.00794981247,0.0499065349
19.16,-0.0902480152,0.765991441,-9.72172477,-0.00321336639,0.0078567831,0.0508308283
19.18,-0.0438415251,0.421270363,-9.59726006,-0.00328178656,0.0079482471,0.0513156774
19.2,-0.127375268,0.699537439,-9.79483629,-0.00393865811,0.00783743797,0.0521138684
19.22,0.125672746,0.612673022,-9.90171007,-0.00368533736,0.00812621527,0.0523370999
19.24,-0.193047625,0.992343465,-9.67687353,-0.00400742654,0.00777041646,0.0539252535
19.26,0.0754324785,0.28123328,-9.8271544,-0.00357330848,0.00798813329,0.0529276867
19.28,0.0849639485,0.594583731,-9.82885372,-0.00365413353,0.00765903037,0.0544704656
19.3,-0.131626431,0.425469511,-9.85039629,-0.00363829401,0.0078102167,0.0552376547
19.32,-0.229881766,0.536969398,-9.94687484,-0.00402228828,0.00845243689,0.056184206
19.34,-0.202553407,0.568197185,-9.81124922,-0.00401417748,0.0081758347,0.0566711816
19.36,-0.107269353,0.433697688,-9.73341442,-0.00416932952,0.00797777141,0.0572089551
19.38,-0.173334581,0.747373934,-9.56714204,-0.00398107337,0.00856132379,0.0575715032
19.4,-0.0976082495,0.663346351,-9.73905614,-0.00435309341,0.00820512906,0.0580896745
19.42,-0.116528451,0.569899777,-9.68722811,-0.00392515075,0.00831183698,0.0591498319
19.44,-0.0465019123,0.683625329,-9.63890061,-0.0041912797,0.00826769328,0.0602952135
19.46,-0.0834141795,0.993360614,-9.7896251,-0.00404930167,0.00818671964,0.0604507652
19.48,-0.161736775,0.508066555,-9.73820809,-0.00433166758,0.00816239668,0.061122436
19.5,-0.101386969,0.485449398,-9.76056783,-0.00416951978,0.00856482463,0.0623449981
19.52,-0.150701974,0.661595985,-9.87047012,-0.00452313031,0.00829428855,0.063154858
19.54,-0.125050306,0.629688381,-9.89080093,-0.00451094483,0.0085478466,0.0632966206
19.56,-0.233480417,0.764867008,-9.54213216,-0.00459328372,0.00846207693,0.0654810652
19.58,-0.122395446,0.992348768,-9.70380016,-0.00483620592,0.00819088766,0.0649231715
19.6,-0.114042139,0.546107165,-9.5825979,-0.00495082675,0.00847342368,0.0654666741
19.62,-0.0915587146,0.446921099,-9.75881318,-0.00480339208,0.00837472123,0.0662768443
19.64,-0.267508969,0.967434468,-9.56446559,-0.00518658704,0.00846443435,0.0674973909
19.66,-0.270547873,0.916615135,-9.59253469,-0.00476703667,0.00876148264,0.0675692231
19.68,-0.0394714944,0.543670432,-9.69615006,-0.00510073572,0.00854310249,0.0688132572
19.7,-0.0381311591,0.833561776,-9.8496942,-0.00517129453,0.00879465436,0.0693640456
19.72,-0.171908043,0.99366033,-9.96186304,-0.00531107554,0.0083811331,0.0695623163
19.74,-0.327783616,0.704021368,-9.74282142,-0.00515930792,0.00868263333,0.0711517094
19.76,-0.151121276,0.69408278,-9.6748229,-0.00526063045,0.0087012889,0.0709999945
19.78,-0.0841586287,0.714608865,-9.68904768,-0.00551829779,0.00924114964,0.0719105148
19.8,-0.238053639,1.16064991,-9.87666598,-0.00539044925,0.00872099934,0.0732638835
19.82,-0.203230947,1.04021705,-9.62161431,-0.00564624387,0.0089885902,0.074028489
19.84,-0.0405716333,0.850410916,-9.747613,-0.00525841954,0.00879475003,0.0741169241
19.86,-0.29242433,0.806619562,-9.61974182,-0.00571426064,0.00911803276,0.0744836676
19.88,-0.151524874,0.927605256,-9.5041428,-0.00572272164,0.0089644623,0.0754587054
19.9,-0.0988500351,0.841706624,-9.75521579,-0.00565649017,0.00903397529,0.0764877748
19.92,-0.233178877,0.599225283,-9.77291932,-0.00609156206,0.00890500095,0.0773217867
19.94,-0.289975872,1.21789238,-9.92775701,-0.00635697959,0.0090502661,0.078183906
19.96,-0.287018383,0.903662467,-9.75282714,-0.00584212199,0.00910571082,0.0791470109
19.98,-0.184809828,0.876023563,-9.80769963,-0.00604808493,0.00892733831,0.0792462011
20,-0.03508695,0.674372436,-9.82272262,-0.00626785071,0.00910797837,0.0803318318
20.02,-0.151322432,1.18340052,-9.70124727,-0.00609266354,0.00931551528,0.0804558078
20.04,-0.26779766,0.834882405,-9.75597683,-0.00636881439,0.00922693524,0.0819988954
20.06,0.0109754843,0.782416863,-9.81605116,-0.00641402232,0.00943869971,0.0825062164
20.08,-0.152099793,1.01181177,-9.77849697,-0.0064674778,0.00926726128,0.0828356972
20.1,-0.00420368144,0.984383772,-9.83009556,-0.00623012213,0.00921241146,0.0840856318
20.12,0.0704841342,0.974457311,-9.76334223,-0.00650734206,0.00947534437,0.0854504563
20.14,-0.0324424248,1.01874903,-9.80821526,-0.00714329144,0.00941222936,0.0858309095
20.16,-0.0487471895,0.760098672,-9.80471018,-0.00708761067,0.00959531158,0.0870721114
20.18,0.0331127485,0.814360899,-9.73562811,-0.00723834442,0.00951908359,0.0870814134
20.2,-0.156594818,0.714117936,-9.56108245,-0.00708588248,0.00947828926,0.0886928847
20.22,0.0859795178,1.01187375,-9.8188861,-0.00743541783,0.00981918675,0.0883368686
20.24,-0.0111847968,1.41550838,-9.58976145,-0.00683832854,0.00916113881,0.0895396842
20.26,0.162622375,0.821382447,-9.82161347,-0.00748098993,0.00923724444,0.0897149544
20.28,0.0520872771,1.01850243,-9.72950227,-0.00770004135,0.00973746891,0.0906129344
20.3,0.183200216,0.802084361,-9.86818167,-0.00724235684,0.00964305821,0.0921716157
20.32,0.0390775456,0.782006707,-9.62556223,-0.00801522713,0.0092306987,0.0928186045
20.34,0.0333457415,0.940255653,-9.72573576,-0.00779485369,0.00954732081,0.0931575697
20.36,-0.0906211628,1.18461126,-9.79929503,-0.00762352834,0.00992946943,0.094196091
20.38,-0.173592132,1.05574089,-9.74157135,-0.00791346469,0.00979004608,0.0948536549
20.4,-0.0883369868,0.992256545,-9.68444861,-0.00802221502,0.00966945573,0.0953633217
20.42,0.00140463093,0.847117414,-9.78959627,-0.00808120137,0.00949017553,0.0968132451
20.44,-0.077388107,1.05847835,-9.65751259,-0.00819285883,0.00970440359,0.0977864842
20.46,-0.128239964,1.15094494,-9.89298088,-0.00844442299,0.00959883837,0.0982669026
20.48,-0.342207737,0.72536244,-9.94863789,-0.00847599931,0.00986958074,0.0990508297
20.5,-0.0819180694,0.912600457,-9.76522436,-0.00875188955,0.00973669918,0.100111424
20.52,0.0890710752,1.2385159,-9.56520808,-0.0084266979,0.00982126027,0.100759841
20.54,0.181604124,1.32927347,-9.826562,-0.00856501883,0.00990258595,0.101754306
20.56,-0.115187979,1.28394847,-9.76263775,-0.00851448569,0.00970513176,0.103028591
20.58,0.135154497,1.19851019,-9.83460443,-0.00902598806,0.00965374206,0.103224009
20.6,-0.224298026,1.11181971,-9.62367873,-0.00863549289,0.0102394386,0.104005435
20.62,0.00782704741,0.925624871,-9.73304697,-0.00901518155,0.00983767967,0.105673457
20.64,0.0764500964,1.3104903,-9.7333264,-0.00904653439,0.0100276231,0.105655457
20.66,0.145224327,1.00763553,-9.64715697,-0.00891118014,0.00998493674,0.107031903
20.68,0.0170695923,1.0413913,-9.70043893,-0.00920780315,0.0096841433,0.107623744
20.7,0.142251104,1.12662388,-9.66499174,-0.00909689381,0.00997943098,0.108603421
20.72,-0.0263270884,1.33605855,-9.78491793,-0.0095398101,0.0101999076,0.109091799
20.74,0.0381580981,1.02717615,-9.79418481,-0.00959715208,0.00995269084,0.109475768
20.76,-0.0328955435,1.18507258,-9.91790956,-0.00936586219,0.00971551506,0.11122962
20.78,0.299433783,1.1798222,-9.80882997,-0.00957803535,0.00998127512,0.111861208
20.8,0.0517437018,1.12329842,-9.65684792,-0.0102804284,0.00997322191,0.112443263
20.82,0.243301206,1.31890522,-9.75052912,-0.00986515712,0.00998106091,0.113294292
20.84,0.0233365155,1.02775663,-9.75124076,-0.00964571121,0.00979791051,0.114535546
20.86,-0.02831511,1.26138762,-9.67528654,-0.0099223119,0.0100844955,0.115488102
20.88,-0.00557223494,1.44807733,-9.91494569,-0.010487489,0.00982994557,0.116492599
20.9,0.0492375589,1.5563224,-9.63709267,-0.0104606794,0.00978610357,0.117321289
20.92,-0.128789307,1.23059729,-9.93692615,-0.010447801,0.0100350981,0.117189578
20.94,0.207575415,1.06021678,-9.76807615,-0.0105448159,0.00995532321,0.119307153
20.96,0.0318100576,1.06259483,-9.77133505,-0.011003199,0.0098927833,0.11912755
20.98,0.117747337,1.748196,-9.76596394,-0.0109237371,0.00996546418,0.120483948
21,-0.050030153,1.35246803,-9.79983166,-0.0113079331,0.00956712468,0.121064922
21.02,-0.075169333,1.39294618,-9.7696121,-0.0107669655,0.00953986326,0.122399517
21.04,0.148727385,1.34526433,-9.65049598,-0.0111147933,0.00969605678,0.122463863
21.06,0.0469108103,1.27101497,-9.82155017,-0.0114510067,0.0100593943,0.124185608
21.08,-0.054130425,1.30128674,-9.71712072,-0.0112458436,0.0101271308,0.124731143
21.1,-0.117951846,1.20561131,-9.81298184,-0.0111555965,0.0100635863,0.125380081
21.12,0.160266097,1.3041621,-9.7056069,-0.011805474,0.0104056626,0.126851965
21.14,0.0850475474,1.14405832,-9.71560133,-0.0115728075,0.00991229519,0.126663764
21.16,0.233592334,1.23810222,-9.67537686,-0.0115468193,0.0102300882,0.12861792
21.18,0.159634492,1.42506474,-9.76345187,-0.0115903721,0.00965448742,0.129093709
21.2,0.132811361,0.943630559,-9.66021192,-0.0119658954,0.010278958,0.130259112
21.22,0.00802307889,1.54327762,-9.50710956,-0.0120347326,0.0100449993,0.13050484
21.24,0.280581861,1.25707743,-9.80552026,-0.0119407446,0.0103261275,0.131358675
21.26,0.0209892072,1.50006019,-9.86137497,-0.0121884329,0.00973534853,0.132166113
21.28,0.136607193,1.02762412,-9.67668197,-0.012543693,0.00975795237,0.134530707
21.3,0.180522028,1.11839305,-9.87631509,-0.0125248155,0.0101630095,0.133654099
21.32,0.192307078,1.44718267,-9.71008907,-0.0126438845,0.00985278821,0.13554195
21.34,0.0978511819,1.05694571,-9.74040759,-0.0128959448,0.00982891152,0.136162906
21.36,0.0764264956,1.21810456,-9.83276299,-0.0126642854,0.0101864128,0.136264114
21.38,0.0358693196,1.51278985,-9.53023602,-0.0128551955,0.00972584416,0.137935405
21.4,0.116989065,1.70905378,-9.74722439,-0.012928436,0.00997090764,0.138715517
21.42,0.344648014,1.60615934,-9.84251933,-0.0129675366,0.00951349818,0.139771219
21.44,0.293958074,1.50684242,-9.77330228,-0.0128875216,0.00997155681,0.140555114
21.46,0.322866493,1.32722706,-9.68208193,-0.0131719238,0.00960931199,0.141480871
21.48,0.190216948,1.44906333,-9.73857006,-0.0132502357,0.00986393379,0.141855511
21.5,0.0482946153,1.60039831,-9.75379727,-0.0139216451,0.00989364343,0.143423105
21.52,0.119483588,1.41766117,-9.95946562,-0.0134759708,0.00948652412,0.144002521
21.54,0.267746085,1.21532196,-9.74957803,-0.0139130929,0.00952497358,0.144628743
21.56,0.103164643,1.35690051,-9.64519442,-0.0137431316,0.00948649504,0.145794668
21.58,0.252574991,1.67973994,-9.68727421,-0.0139231988,0.00976168314,0.146175899
21.6,0.238566889,1.47531877,-9.65692859,-0.0140190555,0.00925750377,0.146781573
21.62,0.218515681,1.37199454,-9.68101139,-0.0142649407,0.0094542849,0.147456619
21.64,0.303319211,1.57201988,-9.71114413,-0.0145030328,0.00957655223,0.149064405
21.66,0.231058179,1.46063195,-9.99641609,-0.0145367031,0.00937372614,0.149738466
21.68,0.138295795,1.23338616,-9.77544628,-0.0144879111,0.00919277747,0.149723068
21.7,0.331120903,1.73248721,-9.66618398,-0.0148039513,0.00929957531,0.150788628
21.72,0.228744741,1.64933255,-9.67033969,-0.0147817778,0.00933520842,0.152396641
21.74,0.343471617,1.3266433,-9.51943648,-0.0146040302,0.00948919045,0.152418512
21.76,0.274600206,1.74842323,-9.84944749,-0.0147042537,0.00924662318,0.154069832
21.78,0.327799509,1.41360759,-9.78036345,-0.015101614,0.00914526124,0.154518661
21.8,0.436775004,1.55533,-9.89559509,-0.0149133544,0.00908155625,0.155125863
21.82,0.245032499,1.27611445,-9.77386439,-0.0151963286,0.00932700057,0.157057482
21.84,0.267025503,1.28493513,-9.61335423,-0.0153510444,0.00918573027,0.158015263
21.86,0.35292528,1.54917263,-9.66705817,-0.0154841208,0.00894380641,0.157803024
21.88,0.365146199,1.61474575,-9.56163269,-0.0154142859,0.00883641916,0.158279954
21.9,0.391288093,1.59751085,-9.77099657,-0.0158224601,0.00915340173,0.160104167
21.92,0.460862998,1.25214808,-9.61870387,-0.0161536021,0.00901302813,0.160594785
21.94,0.335134083,1.38570585,-9.81229264,-0.015851179,0.00906842564,0.160949776
21.96,0.319998551,1.67731637,-9.77724676,-0.0155376084,0.0090728659,0.162333956
21.98,0.303696445,1.80971895,-9.88187839,-0.0157649922,0.00874180278,0.162478623
22,0.54934342,1.46344764,-9.73806441,-0.016330461,0.00896289752,0.163838315
22.02,0.530556388,1.51935824,-9.67876616,-0.0164139861,0.00871733832,0.164137669
22.04,0.348644767,1.84358291,-9.79800162,-0.0167405886,0.00838255894,0.164874303
22.06,0.459836247,1.72844173,-9.54085938,-0.016569723,0.00854493522,0.1654176
22.08,0.379478511,1.82650698,-9.72674346,-0.0170707952,0.00890819728,0.166724166
22.1,0.290985081,1.69327467,-9.76420147,-0.0169965045,0.00857582648,0.167802331
22.12,0.311709778,1.71267801,-9.83410699,-0.0166154145,0.00841758705,0.168400106
22.14,0.258478735,1.79142657,-9.62369762,-0.0172879202,0.00808571305,0.169174227
22.16,0.439842198,1.36316242,-9.74703618,-0.0168801182,0.00857965705,0.169699026
22.18,0.472703119,1.84778823,-9.8063,-0.0170507892,0.00816298108,0.169884272
22.2,0.286259719,1.56963271,-9.82111073,-0.0172303785,0.00838261208,0.170977809
22.22,0.476307617,1.57068175,-9.69595871,-0.0172845029,0.00798564656,0.172040685
22.24,0.761699126,1.92535229,-9.7176098,-0.0175604721,0.00858946404,0.173552152
22.26,0.734905371,2.13411235,-9.56516627,-0.0177744465,0.00794210201,0.173368973
22.28,0.517781734,1.80453204,-9.6461341,-0.0173972181,0.00784059878,0.173968938
22.3,0.578592135,1.86147649,-9.8283607,-0.0177287213,0.00773942059,0.17404801
22.32,0.422473905,1.88365787,-9.61392917,-0.0178613683,0.00767595264,0.175365474
22.34,0.829931003,1.80847552,-9.57630056,-0.0182955496,0.00766722181,0.175685868
22.36,0.621432563,1.62873196,-9.71087491,-0.018100852,0.00791310546,0.176088066
22.38,0.526292488,1.65649863,-9.76462691,-0.0180658849,0.007389782,0.177606338
22.4,0.519738032,1.6283607,-9.53355518,-0.0181837597,0.00750077109,0.178329226
22.42,0.52950717,1.62946339,-9.69934032,-0.0181537626,0.00757361495,0.179045318
22.44,0.557599511,1.46557608,-9.80292787,-0.0179251256,0.00751023058,0.179248886
22.46,0.683182443,1.86543396,-9.83221095,-0.0184286515,0.00717586319,0.179682936
22.48,0.76091501,1.92540646,-9.4577965,-0.0186019319,0.00725887773,0.181206107
22.5,0.540275924,1.79446993,-9.63977707,-0.0187333636,0.00700862909,0.18214006
22.52,0.680139671,1.72646066,-9.52554814,-0.0184181407,0.00711671416,0.182200591
22.54,0.586206296,1.92771926,-9.73156146,-0.018696271,0.00666745867,0.181829522
22.56,0.669306452,1.61561807,-9.65497587,-0.018849587,0.00664911167,0.182688971
22.58,0.559816327,1.74671895,-9.62337418,-0.0192522261,0.00692466495,0.184001885
22.6,0.393587775,2.15697622,-10.0343402,-0.0188434844,0.00667848584,0.183993384
22.62,0.800684278,1.82664611,-9.65382328,-0.0187727165,0.0063565793,0.185608157
22.64,0.690299856,1.67954081,-9.68972094,-0.0191513837,0.00651512167,0.185078591
22.66,0.731976263,1.53660515,-9.69167289,-0.0194793559,0.00650499336,0.18584285
22.68,0.6067576,1.89530752,-9.54759909,-0.0192339438,0.00663644824,0.185777447
22.7,0.493248425,1.28443618,-9.86224824,-0.0193267948,0.00619609194,0.186792805
22.72,0.667077852,1.56580904,-9.63729197,-0.0194318214,0.00629263865,0.188667637
22.74,0.612610183,1.94296872,-9.62010633,-0.0198581877,0.00610494194,0.188342282
22.76,0.801037107,1.64449805,-9.61512445,-0.0201202953,0.0061601944,0.188535456
22.78,0.669769996,1.82577134,-9.6130026,-0.0202452431,0.0057945965,0.188901273
22.8,0.698105158,2.12125292,-9.66911389,-0.0198798462,0.00569239286,0.189222622
22.82,0.789873262,1.6168081,-9.69327685,-0.0197340842,0.00579672574,0.189795927
22.84,0.675378262,1.89867067,-9.76731002,-0.020011529,0.00560825923,0.191138401
22.86,0.782395651,1.54612617,-9.44116193,-0.020258269,0.00568224465,0.191158974
22.88,0.556536808,1.73832894,-9.79604936,-0.0202151759,0.00519947746,0.191481355
22.9,0.909721498,1.81969107,-9.63773244,-0.0199069745,0.00530148575,0.192151768
22.92,0.735056627,1.38594091,-9.63044834,-0.0203453024,0.00510943895,0.192017628
22.94,0.878167195,1.49332469,-9.65468407,-0.0203451558,0.00500997479,0.192586443
22.96,0.688929265,1.67337797,-9.70425751,-0.0206640463,0.00516877542,0.193140008
22.98,0.821195926,1.75931807,-9.73229077,-0.0206188576,0.00471705613,0.19377112
23,0.954684602,1.88501671,-9.78910036,-0.0208442371,0.00492736861,0.193417405
23.02,0.75048939,1.73896688,-9.66048383,-0.0207989528,0.00484620233,0.193639131
23.04,0.756006655,1.47016093,-9.76901793,-0.0208502079,0.00463569094,0.194125863
23.06,0.8994764,1.57749582,-9.67665333,-0.0206653702,0.00399748393,0.194818729
23.08,0.876049796,1.71367294,-9.64087036,-0.0210042428,0.00428332861,0.195277794
23.1,0.689299358,1.70872145,-9.60608266,-0.0210585204,0.00413438818,0.19540249
23.12,0.78571005,1.56508667,-9.73994115,-0.0204386547,0.00390195692,0.195869728
23.14,0.854281868,1.48131878,-9.61735169,-0.0211314626,0.00385881959,0.195986083
23.16,0.832166425,2.12842398,-9.91420263,-0.0207482592,0.00391637309,0.196508741
23.18,0.83520873,1.63180116,-9.74118684,-0.0212119322,0.00404002801,0.196397818
23.2,0.939101203,1.57273649,-9.73924125,-0.021075248,0.00368155477,0.196748002
23.22,1.01162593,1.88531498,-9.60835267,-0.020939074,0.00365664398,0.197121802
23.24,0.909353567,2.07072514,-9.62294191,-0.0210492288,0.0028883219,0.197316406
23.26,0.846077597,2.19040528,-9.71451852,-0.0210341827,0.00318414447,0.197917163
23.28,1.22193821,1.67706809,-9.74079182,-0.0208511228,0.00329654594,0.197450815
23.3,1.1412316,1.85789782,-9.54202846,-0.0210919063,0.00288563565,0.198071367
23.32,0.791124477,1.48914478,-9.62164004,-0.0211675353,0.00326637722,0.197419369
23.34,0.953140067,1.8160016,-9.59584821,-0.0210168981,0.00280798276,0.197989959
23.36,0.811309366,1.74836576,-9.75083142,-0.0212320968,0.00251514869,0.197816856
23.38,1.04225235,1.7956355,-9.6345941,-0.0209353403,0.00251400106,0.198561723
23.4,0.983674975,1.70682631,-9.63059163,-0.0210011994,0.00261981419,0.198794311
23.42,1.03965992,1.66985271,-9.65875681,-0.0211890789,0.00205586422,0.198443798
23.44,1.19680553,2.03670125,-9.62738,-0.0210730023,0.00210921096,0.198632334
23.46,0.887118268,1.7996756,-9.7753112,-0.0210008218,0.00196430314,0.198456225
23.48,0.819859515,1.50417699,-9.53652772,-0.0211598027,0.00217035172,0.199388505
23.5,0.998976322,1.87996875,-9.54624992,-0.0210272568,0.00186973154,0.198848926
23.52,1.03039042,1.82889955,-9.68217654,-0.0213108087,0.00186774334,0.198711447
23.54,1.14265466,2.12442894,-9.69633101,-0.0210926543,0.00191580177,0.198970304
23.56,1.16042904,1.98875248,-9.81103174,-0.0212064354,0.00133942919,0.200037557
23.58,1.0109613,1.77531551,-9.67378528,-0.0213470512,0.000964568415,0.19854008
23.6,1.1692755,1.63514101,-9.65485073,-0.0209155553,0.00170007789,0.199116899
23.62,1.00932681,2.18682107,-9.5868446,-0.0212247717,0.00129274843,0.198786493
23.64,1.3198409,1.91516254,-9.66054971,-0.0211477458,0.00103021795,0.198665197
23.66,1.08257018,1.62589465,-9.65931685,-0.021241086,0.000564417457,0.198693495
23.68,1.29216953,1.68325873,-9.70241604,-0.0214047401,0.0006554762,0.198648194
23.7,1.09194899,1.76348512,-9.5528031,-0.0210484113,0.000696254528,0.198811811
23.72,1.07284017,1.79085646,-9.61010812,-0.0213787316,0.000706969532,0.198053249
23.74,1.36925737,2.05824096,-9.63268257,-0.021129372,0.000784150233,0.198139236
23.76,1.20180803,1.74948621,-9.68409899,-0.0212260139,0.000505420794,0.198705358
23.78,1.38898948,1.61809006,-9.62831695,-0.0210417568,0.000265962352,0.198338416
23.8,0.962290195,2.03086923,-9.65679796,-0.0208477627,0.000175923933,0.198397413
23.82,1.27872592,1.3929073,-9.5653041,-0.0211074089,-5.47708584e-05,0.198397708
23.84,1.25697449,2.07539173,-9.58909194,-0.0210874149,-0.000276803288,0.197229715
23.86,1.37450557,1.8751325,-9.40906191,-0.0211005967,-0.000127233897,0.198106411
23.88,1.4054101,1.99149273,-9.54791838,-0.0211711159,-0.000281109735,0.19708016
23.9,1.32897737,1.71522016,-9.49111387,-0.0209329408,-0.000668267482,0.197072636
23.92,1.37754483,1.90957515,-9.58796289,-0.0209337445,-0.00088454919,0.196905573
23.94,1.36971097,1.80948659,-9.60491244,-0.0210632792,-0.000377558775,0.196956625
23.96,1.12454536,1.76854335,-9.6285283,-0.0207101921,-0.00056927628,0.197147031
23.98,1.2962306,1.99123031,-9.65639155,-0.0208259686,-0.00111918737,0.195831443
24,1.43371444,1.62543696,-9.72067087,-0.0205825165,-0.000896356342,0.195826858
24.02,1.10301348,1.82107364,-9.78362346,-0.0205312056,-0.000990125643,0.195503142
24.04,1.18016518,1.89600339,-9.73705005,-0.0207645843,-0.00124015549,0.195238488
24.06,1.17977458,1.74371955,-9.70695424,-0.0209563313,-0.00125271418,0.194278205
24.08,1.38949145,1.65660993,-9.47741054,-0.0207664082,-0.00148973133,0.194349558
24.1,1.34720896,1.67502743,-9.33582572,-0.0205148107,-0.00147711521,0.194045063
24.12,1.2612865,1.90863648,-9.81250895,-0.0205840051,-0.00167171596,0.193573119
24.14,1.39323123,1.41173757,-9.6715294,-0.0210171718,-0.00191786486,0.193496032
24.16,1.25540993,1.88375156,-9.65861759,-0.0203699649,-0.00182798789,0.193503819
24.18,1.30121533,2.11723079,-9.71051896,-0.0205292796,-0.00204819645,0.192876419
24.2,1.53305929,1.59265089,-9.70970146,-0.0200625301,-0.00205589915,0.192528824
24.22,1.28061237,2.04437867,-9.64236064,-0.0203299478,-0.00222712988,0.192021206
24.24,1.30459239,1.5907689,-9.46798065,-0.0200789519,-0.00248445793,0.191873642
24.26,1.58763792,1.64412545,-9.67396243,-0.0201970926,-0.00277838147,0.191193197
24.28,1.17110025,1.66484724,-9.6545677,-0.0201368701,-0.0024978981,0.190075903
24.3,1.42510038,1.8952697,-9.60193413,-0.0203839697,-0.00237061978,0.190290074
24.32,1.39229462,1.7870446,-9.74689353,-0.019540252,-0.00295191278,0.190326406
24.34,1.39217935,1.72979293,-9.50200942,-0.0199096909,-0.00291932082,0.189725577
24.36,1.52537395,1.88310138,-9.61276358,-0.0195870907,-0.00299039738,0.188189193
24.38,1.59666478,1.94033044,-9.65044166,-0.0197024817,-0.00328620223,0.187816178
24.4,1.6417687,1.46277117,-9.60725969,-0.0198588358,-0.00295589701,0.188254235
24.42,1.41174255,1.75372914,-9.60028474,-0.0196863542,-0.00322607944,0.187290975
24.44,1.5059431,1.61324228,-9.69926039,-0.0195334349,-0.00324420111,0.186242336
24.46,1.33182918,1.76607211,-9.59844632,-0.0194701641,-0.00350795695,0.186394518
24.48,1.71409097,1.61269433,-9.39474405,-0.0192907151,-0.0036573021,0.185306783
24.5,1.65787548,1.64413837,-9.50315821,-0.01913737,-0.00354720094,0.185102983
24.52,1.45029124,1.63452478,-9.59310474,-0.0192163127,-0.00363239143,0.184238206
24.54,1.52252062,2.17954492,-9.43431877,-0.0190761742,-0.00378687626,0.183580007
24.56,1.3678058,1.54452842,-9.44307092,-0.0191123379,-0.00351489692,0.18384916
24.58,1.6434517,1.53359205,-9.58395711,-0.0190239108,-0.00362318867,0.182343893
24.6,1.53418843,1.80811976,-9.71306797,-0.0183557279,-0.0038436204,0.181265217
24.62,1.43868335,1.72458617,-9.60922325,-0.0187312219,-0.00398424347,0.181509281
24.64,1.53159255,1.919369,-9.48926943,-0.0187259242,-0.00379592352,0.180868556
24.66,1.52134004,1.72366579,-9.50004498,-0.0182978951,-0.00425521983,0.181103879
24.68,1.56002809,1.62743471,-9.58569564,-0.0184463287,-0.0043283475,0.178754115
24.7,1.67675879,2.02371555,-9.63334719,-0.0184552197,-0.0044781896,0.17934013
24.72,1.56475859,1.77066012,-9.56559154,-0.0183256812,-0.00460329945,0.178386335
24.74,1.27278599,1.79113134,-9.56169171,-0.0184988572,-0.00462892752,0.176973089
24.76,1.53291437,1.37669455,-9.50452094,-0.0182966503,-0.00467173652,0.177597135
24.78,1.62215195,1.50836613,-9.50302268,-0.0181739033,-0.00482878985,0.176888068
24.8,1.29729876,1.88395814,-9.73397092,-0.0171422559,-0.00445476226,0.17598534
24.82,1.70859119,1.78572503,-9.60887437,-0.0174796336,-0.00462873903,0.174260017
24.84,1.62788942,1.53951446,-9.64330013,-0.0178440583,-0.00461464912,0.175111726
24.86,1.62309501,1.95616029,-9.72732437,-0.0174862673,-0.00523604773,0.173473238
24.88,1.62796031,1.65168966,-9.52351738,-0.0177674316,-0.00487996287,0.172286715
24.9,1.62033561,1.49607459,-9.51226894,-0.0171992533,-0.0050210352,0.172284918
24.92,1.81496639,1.48783946,-9.76742589,-0.0175172402,-0.00543928706,0.171145882
24.94,1.57582394,1.84243835,-9.48895948,-0.0174362949,-0.00540256136,0.170276865
24.96,1.83171222,1.34681589,-9.53124287,-0.0167899134,-0.00538507009,0.169982103
24.98,1.53102578,1.19870472,-9.49968887,-0.0169938391,-0.00534851463,0.169021601
25,1.66118178,1.80409585,-9.54202298,-0.0170083049,-0.00527480085,0.167849621
25.02,1.59562595,1.67097263,-9.59705832,-0.0169564465,-0.00543394476,0.166826345
25.04,1.74552621,1.47827313,-9.57008792,-0.016848688,-0.00555906213,0.16693191
25.06,1.91122,1.42431642,-9.53960097,-0.0164992999,-0.00557509193,0.166708755
25.08,1.65130548,1.35303048,-9.54371137,-0.0163050536,-0.00580719089,0.165943378
25.1,1.72989885,1.83489225,-9.5571515,-0.016180654,-0.0057724197,0.164456573
25.12,1.6478426,1.57505271,-9.68047332,-0.0160358084,-0.00586392615,0.163715801
25.14,1.6417952,1.68503316,-9.55084207,-0.0162641402,-0.00570076957,0.163155619
25.16,1.74683462,1.51924658,-9.679599,-0.0159169175,-0.0060643831,0.161615131
25.18,1.70423824,1.61516836,-9.57939783,-0.0158978181,-0.00582300177,0.161268842
25.2,1.49524971,1.61145191,-9.57996942,-0.0161365184,-0.0058916112,0.160916618
25.22,1.65226814,1.42676961,-9.3951385,-0.0158817697,-0.00642647622,0.159607431
25.24,1.6997376,1.24691247,-9.66352722,-0.0155493437,-0.00583690714,0.159433887
25.26,1.82897693,1.28286489,-9.63033286,-0.0158528525,-0.00617328185,0.157371419
25.28,1.73493162,1.82881574,-9.43658927,-0.0156972152,-0.00610166184,0.157108576
25.3,1.8460951,1.59296677,-9.69941873,-0.0153576005,-0.00614034902,0.156539591
25.32,1.65476545,1.47323208,-9.64615248,-0.0154120769,-0.00596280774,0.15578947
25.34,1.87189701,1.86784481,-9.51067287,-0.0155184411,-0.00625136102,0.155037049
25.36,1.78783022,1.43842677,-9.54864558,-0.0149997001,-0.00608605151,0.154263245
25.38,1.70254228,1.42410606,-9.60646586,-0.014641352,-0.0058581642,0.153027271
25.4,1.75333304,1.60746164,-9.61155375,-0.0148336475,-0.00604009512,0.152190716
25.42,1.79474212,1.82723203,-9.52962389,-0.0145744503,-0.00643170099,0.151462738
25.44,1.71912825,1.50959201,-9.63491318,-0.0143553268,-0.00650059049,0.150955968
25.46,1.65405343,1.4996801,-9.69534963,-0.0145826288,-0.00676896851,0.149709017
25.48,1.79165642,1.31355419,-9.38481325,-0.0147564798,-0.00599743221,0.149195456
25.5,1.85795113,1.4238364,-9.51510064,-0.0143597709,-0.00589749907,0.149052593
25.52,1.83379154,1.16112528,-9.55747133,-0.0140957235,-0.00671474761,0.146699907
25.54,1.62075307,1.24846998,-9.59562161,-0.0140991037,-0.00647062321,0.146071653
25.56,1.79987363,1.61547538,-9.68496318,-0.0137503885,-0.00664267486,0.145378132
25.58,1.92878167,1.46453739,-9.70994231,-0.0137177187,-0.0066735355,0.144782921
25.6,1.74849656,1.68820475,-9.64671303,-0.0140449931,-0.00647475757,0.143485113
25.62,1.66219998,1.43866834,-9.64810836,-0.0136347147,-0.00657515287,0.14310302
25.64,1.76019245,1.41653882,-9.59674026,-0.0136154793,-0.00597159189,0.142430133
25.66,1.68593374,1.47391389,-9.59672147,-0.0134841171,-0.00674543204,0.141290503
25.68,1.79614249,1.03507578,-9.53083421,-0.0132750813,-0.00660899927,0.140628231
25.7,1.91145567,1.30699388,-9.52079953,-0.012806259,-0.00645198055,0.139139511
25.72,1.77292518,1.11591444,-9.49965379,-0.0131772771,-0.00717032055,0.139059873
25.74,1.75651198,1.53509127,-9.82935014,-0.0131899886,-0.00681491242,0.137845979
25.76,1.80822417,1.53380627,-9.66523006,-0.0128513096,-0.00724093132,0.136890076
25.78,1.91919918,1.44446557,-9.50533575,-0.0128082569,-0.00672266513,0.135688066
25.8,1.75827072,1.45564154,-9.47982339,-0.0124867839,-0.00701631837,0.135287999
25.82,1.85281662,1.46909352,-9.49150445,-0.0124194164,-0.00682111532,0.134583451
25.84,1.91664846,1.34852923,-9.55015076,-0.0122971478,-0.00686717961,0.132542657
25.86,1.73051917,1.5595788,-9.69676371,-0.0122289305,-0.00684921646,0.13341263
25.88,1.89274231,1.42607654,-9.73162767,-0.0122057663,-0.00676884082,0.132091498
25.9,1.96811303,1.04103951,-9.55590268,-0.0123003783,-0.00657273848,0.131156
25.92,1.72018898,1.18942414,-9.45150784,-0.0117929359,-0.00664428975,0.130237698
25.94,1.79277674,1.33544003,-9.49475827,-0.0120135768,-0.00707726893,0.129480058
25.96,1.80338418,1.3195921,-9.55505208,-0.0118087515,-0.00708839021,0.128992157
25.98,1.95694688,1.45978605,-9.45065688,-0.0115691672,-0.00706838515,0.127681941
26,1.70820378,1.30014505,-9.4678344,-0.0114539326,-0.00701063352,0.127051516
26.02,1.85208145,1.31932377,-9.50763099,-0.0115779884,-0.00725335644,0.125932946
26.04,1.83148295,1.06477759,-9.44317577,-0.0114230808,-0.00653927291,0.125012985
26.06,1.80491331,0.968608953,-9.42335676,-0.0112616871,-0.00710265585,0.12356147
26.08,1.81824111,1.55052679,-9.5781379,-0.0114009783,-0.00683022419,0.123278475
26.1,1.84510705,1.2218992,-9.57523378,-0.0108795134,-0.00691503161,0.12328943
26.12,1.91966704,0.795354887,-9.52877606,-0.0109037584,-0.00661077752,0.121318495
26.14,1.72273419,1.21216797,-9.5484558,-0.0107613537,-0.00701742492,0.119983816
26.16,1.8192515,1.22564213,-9.60024376,-0.010714214,-0.007041588,0.119020487
26.18,1.94552952,1.4245731,-9.56581775,-0.0104727151,-0.00681110884,0.11873817
26.2,1.90376598,1.41279785,-9.63323615,-0.010128954,-0.00663579799,0.118133431
26.22,1.64819227,0.992855737,-9.48654472,-0.0104621169,-0.00674478122,0.117430609
26.24,1.85438887,1.26015278,-9.64365476,-0.0103479973,-0.00669504211,0.115760291
26.26,1.78908526,1.45061357,-9.68722868,-0.0103325482,-0.00669311789,0.114972361
26.28,1.80371029,1.16642159,-9.69569603,-0.0095699507,-0.00710761078,0.114031254
26.3,1.80378994,1.22396067,-9.55372992,-0.00982892799,-0.00682267307,0.113535059
26.32,2.044186,1.01855094,-9.54699059,-0.00965513807,-0.00660784344,0.112723132
26.34,1.93892043,1.43144806,-9.71526943,-0.0100364247,-0.00670674269,0.112571337
26.36,1.81805556,1.17858988,-9.52421537,-0.00948537079,-0.00619377203,0.110992705
26.38,1.94203519,1.03624319,-9.59999025,-0.00923854159,-0.00680529532,0.109805339
26.4,1.89389265,1.16656388,-9.50667368,-0.00925646466,-0.00682657745,0.10916675
26.42,1.82431778,0.845563097,-9.46195942,-0.00931536976,-0.00658858386,0.108781495
26.44,1.78417392,1.46574252,-9.70295795,-0.0089124233,-0.00648622156,0.108266263
26.46,1.78434075,1.4471296,-9.57720392,-0.009355386,-0.00665429098,0.106937578
26.48,1.88755302,1.29039288,-9.56870296,-0.00937655075,-0.00672442255,0.105952618
26.5,1.89775985,0.882063157,-9.7883333,-0.00903770317,-0.0067260815,0.1050725
26.52,1.84894859,0.881280883,-9.57026931,-0.00869729173,-0.00648346086,0.104569906
26.54,1.81920057,0.940391915,-9.67801003,-0.00850495941,-0.00691576603,0.103875533
26.56,2.01161561,0.995687691,-9.58998129,-0.00893242308,-0.00662288792,0.102621648
26.58,1.85320936,1.11966678,-9.54814781,-0.00889047716,-0.00697096466,0.101753859
26.6,2.10642134,0.810335851,-9.44339551,-0.00837602689,-0.00696354938,0.101490571
26.62,1.876615,1.08642116,-9.62887164,-0.00863856763,-0.00673117172,0.099572957
26.64,1.97491873,1.36306104,-9.66038382,-0.00799875861,-0.00641230418,0.0990213773
26.66,1.77850916,0.995982318,-9.51277875,-0.00826840574,-0.00661524226,0.0985127283
26.68,1.74172609,1.06489845,-9.75919712,-0.008173923,-0.00659547222,0.0981255245
26.7,2.02135859,1.07857718,-9.56524336,-0.00790622507,-0.00663410501,0.0975525958
26.72,1.80243077,0.931454118,-9.55320266,-0.00769946224,-0.00665712267,0.0958760909
26.74,1.94356335,0.882439096,-9.61716094,-0.00772425354,-0.00638652222,0.0951334861
26.76,1.80235403,1.27132338,-9.65932519,-0.00783193675,-0.00659167224,0.0940162191
26.78,1.82567138,0.667306028,-9.66252487,-0.00794554943,-0.00697175339,0.0943275446
26.8,1.96345404,1.15783625,-9.44790646,-0.00771603214,-0.00617667363,0.0923114145
26.82,1.75799488,1.04089763,-9.7612704,-0.0073384678,-0.0066186591,0.0920898269
26.84,1.72156608,1.24464407,-9.50427166,-0.00727485866,-0.00660239091,0.0918385476
26.86,1.86287923,0.838119535,-9.57994389,-0.00747377617,-0.00683662293,0.0905568979
26.88,1.99104277,1.36525615,-9.57945919,-0.00714861174,-0.0063595375,0.0899428569
26.9,1.74044362,1.03049796,-9.46331171,-0.00685941596,-0.00635040627,0.0891495797
26.92,2.04171254,0.889425551,-9.53955071,-0.00711906979,-0.00684918057,0.0875948625
26.94,1.81895005,0.980490573,-9.58716089,-0.00688371443,-0.00634016374,0.0870445476
26.96,1.77959222,1.25454539,-9.62770101,-0.00652757907,-0.00648751982,0.0873947021
26.98,1.8665991,0.806153715,-9.72939049,-0.00687110741,-0.00611266883,0.0856478976
27,1.95523161,0.993423539,-9.64981615,-0.0067201804,-0.00593106617,0.0847806939
27.02,1.71246765,0.822453834,-9.60188558,-0.00649649503,-0.00610568597,0.0847585045
27.04,1.83744964,0.905777298,-9.68666861,-0.0063272493,-0.00614387081,0.0840112326
27.06,1.58974885,0.987308795,-9.61178419,-0.00627647893,-0.00626128788,0.0821150917
27.08,1.91646291,0.88495439,-9.72057062,-0.00637178413,-0.00600793703,0.0817792204
27.1,1.90261633,0.786514665,-9.64641153,-0.00670099456,-0.00615693549,0.0808746307
27.12,1.79355761,0.705758703,-9.84102247,-0.00650824973,-0.00621144981,0.0802412213
27.14,1.82605238,0.808241552,-9.65651476,-0.00598861754,-0.00645172435,0.0789936065
27.16,1.74040085,1.18114185,-9.64302525,-0.00617974915,-0.00619438233,0.0788861937
27.18,1.69977275,0.869830898,-9.69682597,-0.00583188305,-0.00619086947,0.0781466944
27.2,1.81082398,0.97354928,-9.70735051,-0.00580396177,-0.00609208517,0.0770633212
27.22,1.75217982,0.483332893,-9.45786463,-0.00609497037,-0.00598728438,0.075758776
27.24,1.86913295,0.799953323,-9.6339317,-0.00591005765,-0.00584681739,0.0760872362
27.26,1.9359353,0.854392337,-9.53720094,-0.0054871103,-0.00606058038,0.0754670623
27.28,1.72006356,0.793537557,-9.50530043,-0.00557708509,-0.00536595473,0.0745129413
27.3,1.90864177,1.06879762,-9.72998254,-0.00554502917,-0.00579441266,0.0734857298
27.32,1.81389644,0.785440896,-9.64021441,-0.00527878926,-0.00586097134,0.07369779
27.34,1.67930928,1.01913678,-9.61213788,-0.00553036541,-0.00580446319,0.0717367716
27.36,1.60092559,0.627988495,-9.48550001,-0.00519639485,-0.00601649995,0.0714661236
27.38,1.86913022,1.14490658,-9.46548918,-0.00492937601,-0.00555856801,0.0706468939
27.4,1.79407997,0.841302606,-9.4661506,-0.00493915915,-0.00566197963,0.0697242048
27.42,1.93154193,0.933431,-9.40787789,-0.00515739713,-0.00555517172,0.0690883067
27.44,1.71766424,1.03712342,-9.52106998,-0.00494184599,-0.0060683157,0.0683042147
27.46,1.84956522,0.798237979,-9.71793897,-0.00513483156,-0.00546853466,0.0676683516
27.48,1.78314925,0.837770757,-9.64221437,-0.00478639637,-0.00566860477,0.0670794971
27.5,1.67870195,0.954851522,-9.50286954,-0.0049962098,-0.00543350381,0.0666217493
27.52,1.8181988,0.728362001,-9.54066171,-0.00461332191,-0.00560463247,0.0652809881
27.54,1.89717506,0.660028126,-9.64435442,-0.00440751607,-0.00535961619,0.0651586386
27.56,1.60721714,0.975515548,-9.73484596,-0.00476148347,-0.00510281531,0.0647701363
27.58,1.75498605,0.762916826,-9.50105977,-0.00460517757,-0.00557671034,0.0634222886
27.6,1.82766976,0.636364471,-9.58122946,-0.00446614254,-0.00554990874,0.0634405744
27.62,1.65788599,0.924841378,-9.52846163,-0.00439599406,-0.00498734762,0.0617906104
27.64,1.70741624,0.953851009,-9.55347329,-0.00442063246,-0.00545450195,0.0611941092
27.66,1.5627092,0.672867875,-9.77297299,-0.00422864239,-0.00506337947,0.0611427018
27.68,1.72660203,0.746546488,-9.72719543,-0.00420166782,-0.0048035021,0.0601703432
27.7,1.8299701,0.684894252,-9.64886022,-0.00415339704,-0.00510090761,0.0599293636
27.72,1.71191693,0.325297902,-9.4818636,-0.00384533734,-0.00537514204,0.0592512776
27.74,1.77860399,0.619936264,-9.45568881,-0.00394801384,-0.0052785909,0.0583055983
27.76,1.70137956,0.869596538,-9.6605077,-0.0039380342,-0.00480275739,0.0573931152
27.78,1.64879637,0.622746482,-9.62625139,-0.00367698866,-0.00507745908,0.0570359262
27.8,1.58265223,0.545990718,-9.60438672,-0.00399251266,-0.00513679715,0.0564001756
27.82,1.66681031,0.622636906,-9.73766577,-0.00394374114,-0.00488332547,0.055070672
27.84,1.79279328,0.595457179,-9.49102798,-0.00363102082,-0.00446904603,0.0549706388
27.86,1.84461679,0.896103459,-9.74669315,-0.00347546054,-0.00492557104,0.054148572
27.88,1.66676763,0.427785759,-9.59313145,-0.00326078448,-0.00494112744,0.0534852663
27.9,1.86897222,0.338121452,-9.60152862,-0.0034631659,-0.00469794346,0.052894519
27.92,1.63914529,0.367527691,-9.53454017,-0.00327328111,-0.00510058594,0.0521330866
27.94,1.75262802,0.41756542,-9.53606764,-0.00331628177,-0.00513782454,0.0511579943
27.96,1.84689118,0.740728332,-9.60016683,-0.0033227684,-0.00472723156,0.0507216499
27.98,1.70092751,0.943803109,-9.53535039,-0.00333542778,-0.00468205159,0.0500489994
28,1.52249792,0.578706834,-9.64145001,-0.0031846359,-0.00448518203,0.0495790493
28.02,1.83064927,0.562896487,-9.58209817,-0.00320844567,-0.00485297096,0.0493571764
28.04,1.59488794,0.839614111,-9.80713376,-0.00274681405,-0.00481249582,0.0489570489
28.06,1.77915957,0.60731125,-9.71448505,-0.00332570815,-0.00442660899,0.0478577017
28.08,1.59267441,0.924526445,-9.55089286,-0.00287177504,-0.00491571111,0.0470221404
28.1,1.71648802,0.785768711,-9.64754339,-0.00287219526,-0.00486023665,0.0471401519
28.12,1.69089485,0.147893301,-9.68619117,-0.00256729682,-0.0045473908,0.0461807615
28.14,1.80506967,0.6130158,-9.56102855,-0.00286247825,-0.00442949567,0.0444108589
28.16,1.55419387,0.523213432,-9.48880456,-0.00271526224,-0.00424022816,0.0445588078
28.18,1.73095554,0.428407185,-9.76521357,-0.0026032658,-0.00433090645,0.0441846752
28.2,1.66726315,0.691263429,-9.73362194,-0.00268636212,-0.00434499402,0.0435612041
28.22,1.67865884,0.628560652,-9.58447825,-0.00258865252,-0.00417554117,0.0422915785
28.24,1.55077633,0.411465211,-9.60622857,-0.00243637943,-0.00432390493,0.0418417182
28.26,1.6811651,0.620922592,-9.6293342,-0.00227735859,-0.00444738834,0.041840019
28.28,1.63960319,0.644174061,-9.68047839,-0.00244275148,-0.00403611379,0.0405060553
28.3,1.69214521,0.399912199,-9.71020732,-0.00223279185,-0.00399530939,0.0401396927
28.32,1.69436532,0.247125757,-9.62691857,-0.00217390549,-0.00358486415,0.0401675337
28.34,1.58886589,0.375383365,-9.71204436,-0.00235775268,-0.00402089621,0.039748622
28.36,1.96925516,0.780109579,-9.58250615,-0.00205378286,-0.00398521977,0.039264897
28.38,1.64321222,0.555509835,-9.66308338,-0.00198781381,-0.00402638074,0.0378541326
28.4,1.63067651,0.746412828,-9.71066426,-0.00217952043,-0.00424293739,0.0373378528
28.42,1.67590943,0.433646568,-9.54235993,-0.00244096884,-0.00398281125,0.0373170703
28.44,1.67210797,0.355911367,-9.5763711,-0.00176867305,-0.00384012159,0.0365948058
28.46,1.79330159,0.741481646,-9.66071281,-0.00207957211,-0.00387644676,0.0358800959
28.48,1.49862669,0.315224112,-9.65386391,-0.00177830579,-0.00375716016,0.0360763777
28.5,1.61945954,0.409032116,-9.72796763,-0.00215681571,-0.00367753608,0.0343607183
28.52,1.66170465,0.252607111,-9.3510338,-0.0019279768,-0.00357679617,0.0341361169
28.54,1.63284837,0.393305005,-9.58610626,-0.00153251796,-0.00384394538,0.0333449334
28.56,1.69941001,0.754156148,-9.6541202,-0.00177146952,-0.00396747667,0.0332589992
28.58,1.69399721,0.493512816,-9.67589499,-0.00173400837,-0.00395253887,0.0322167342
28.6,1.59134251,0.64434292,-9.79638447,-0.0016926277,-0.00386802303,0.0314831003
28.62,1.5150273,0.251126869,-9.69249557,-0.00137975079,-0.00363017555,0.0316527657
28.64,1.53079212,0.417295155,-9.36999208,-0.0015089171,-0.00358583709,0.0307837156
28.66,1.70241756,0.331547909,-9.62334885,-0.00164430538,-0.00344934193,0.0300519059
28.68,1.60315424,0.621342529,-9.62330519,-0.00108120542,-0.00359711106,0.0303393739
28.7,1.53442691,0.27394851,-9.5466783,-0.00145119813,-0.00331621932,0.0286436823
28.72,1.71889472,0.547185457,-9.69024593,-0.00110452284,-0.00339836795,0.028324455
28.74,1.5375278,-0.0768911456,-9.63288987,-0.00128567955,-0.00377925946,0.0280396747
28.76,1.64580843,0.397179324,-9.4339002,-0.00137594194,-0.00336047198,0.027417271
28.78,1.54324634,0.215979028,-9.58011032,-0.00149891797,-0.0032329093,0.0267333965
28.8,1.56042566,0.408029791,-9.4355019,-0.00132573299,-0.00350238477,0.0260841318
28.82,1.57523023,0.858860131,-9.68447971,-0.00137523821,-0.00337791355,0.0253630151
28.84,1.60366712,0.30407974,-9.55471094,-0.0011129154,-0.00336051213,0.0256022438
28.86,1.61173458,0.294556601,-9.53650401,-0.00128123021,-0.00337971066,0.023758769
28.88,1.57624764,0.133571596,-9.59329164,-0.000832563738,-0.00329865038,0.0240603512
28.9,1.54421217,0.284317842,-9.58195668,-0.00060989183,-0.00320641599,0.0235735918
28.92,1.49805185,0.35807295,-9.5952689,-0.000587492485,-0.0031521557,0.022622611
28.94,1.52188714,0.0806091559,-9.67556959,-0.000767336465,-0.00346925653,0.0224544968
28.96,1.55390184,0.184319335,-9.72202786,-0.000735932167,-0.0033534756,0.0219598291
28.98,1.51554451,0.364037311,-9.55086122,-0.000788711966,-0.00275943664,0.021785703
29,1.52316363,0.48525329,-9.49094393,-0.00104426445,-0.0025694717,0.0213083993
29.02,1.52437255,0.187454382,-9.78570783,-0.000579017182,-0.00314361348,0.0205316403
29.04,1.46106295,-0.0518085148,-9.73951451,-0.000791481539,-0.00275054478,0.0199129155
29.06,1.58076012,-0.230877241,-9.62558168,-0.000241313916,-0.00313359698,0.0198039972
29.08,1.57298337,0.661223666,-9.77931456,-0.000590832694,-0.00303947038,0.0193052226
29.1,1.43937899,-0.0021902961,-9.73869573,-0.000424749112,-0.00287219565,0.0184080878
29.12,1.44103521,0.534090696,-9.66391987,-0.000346252615,-0.00283120107,0.0181009154
29.14,1.52519315,0.303949239,-9.3513788,-0.00020215943,-0.00285013121,0.0168730444
29.16,1.56115797,0.454751787,-9.70178874,-0.000359944384,-0.002766017,0.0168494987
29.18,1.34880779,0.151311515,-9.56157502,-6.7877969e-05,-0.00270842264,0.0163350504
