Time [s],AccX [m/s^2],AccY [m/s^2],AccZ [m/s^2],GyroX [rad/s],GyroY [rad/s],GyroZ [rad/s]
0,14.3331,-42.6171588,-9.73280396,5.2438839e-05,-4.46745945e-05,-0.299984499
0.02,8.55045966,-48.083542,-9.73299787,5.49946597e-05,-4.34477183e-05,-0.339410643
0.04,2.88091613,-53.6231259,-9.73321457,5.76118943e-05,-4.22013405e-05,-0.378983706
0.06,-2.66130779,-59.2484873,-9.73345355,6.02834034e-05,-4.09349601e-05,-0.418703687
0.08,-8.06152009,-64.9717537,-9.73371428,6.3001564e-05,-3.96481172e-05,-0.458570585
0.1,-13.3045132,-70.804537,-9.73399616,6.57582656e-05,-3.83404002e-05,-0.498584402
0.12,-18.6036866,-76.0772505,-9.73428306,6.85607982e-05,-3.70183879e-05,-0.539021971
0.14,-23.7277715,-81.4863706,-9.73458929,7.14157314e-05,-3.56879257e-05,-0.580160126
0.16,-28.6601613,-87.0428591,-9.73491419,7.43128128e-05,-3.43475814e-05,-0.621998869
0.18,-33.3832908,-92.7571366,-9.73525702,7.72408433e-05,-3.29959813e-05,-0.664538198
0.2,-37.8785828,-98.6389767,-9.73561703,8.01876483e-05,-3.16318221e-05,-0.707778114
0.22,-42.145514,-103.807204,-9.73597456,8.31515214e-05,-3.02652744e-05,-0.751925657
0.24,-46.170858,-109.161332,-9.73634649,8.61290048e-05,-2.89059438e-05,-0.797187869
0.26,-49.9340061,-114.709735,-9.736732,8.91034247e-05,-2.75518075e-05,-0.843564749
0.28,-53.4129916,-120.459885,-9.73713021,9.20565615e-05,-2.62009452e-05,-0.891056297
0.3,-56.5844369,-126.418178,-9.73754021,9.49685909e-05,-2.48515609e-05,-0.939662513
0.32,-59.2742436,-131.502285,-9.73794133,9.78205226e-05,-2.35156862e-05,-0.989429297
0.34,-61.6492904,-136.797868,-9.73835106,0.000100591059,-2.22052243e-05,-1.04040255
0.36,-63.6849634,-142.308095,-9.73876864,0.000103254172,-2.09184238e-05,-1.09258227
0.38,-65.3551569,-148.034525,-9.73919334,0.000105781771,-1.96537325e-05,-1.14596845
0.4,-66.6322591,-153.976881,-9.73962449,0.000108143633,-1.84098324e-05,-1.2005611
0.42,-67.2322524,-158.859064,-9.74004354,0.000110293137,-1.71896104e-05,-1.2560346
0.44,-67.4472071,-163.936954,-9.74046666,0.000112183773,-1.59968432e-05,-1.31206332
0.46,-67.2523758,-169.204238,-9.74089379,0.000113782663,-1.48319939e-05,-1.36864726
0.48,-66.6220386,-174.65222,-9.74132505,0.00011505534,-1.36958929e-05,-1.42578642
0.5,-65.5295943,-180.269622,-9.74176078,0.00011596573,-1.25897859e-05,-1.4834808
0.52,-63.66765,-184.59816,-9.74218795,0.000116442595,-1.148292e-05,-1.54076963
0.54,-61.3865599,-189.046372,-9.74261975,0.000116425175,-1.03470755e-05,-1.59669216
0.56,-58.6717179,-193.595619,-9.74305767,0.000115892851,-9.18801525e-06,-1.65124837
0.58,-55.5089601,-198.225093,-9.74350345,0.000114826302,-8.0120273e-06,-1.70443827
0.6,-51.8847632,-202.911816,-9.74395909,0.00011320755,-6.82595086e-06,-1.75626186
0.62,-47.5693075,-206.045553,-9.74441898,0.000110984909,-5.55170385e-06,-1.80518461
0.64,-42.8973705,-209.167724,-9.74489166,0.000108134612,-4.11487311e-06,-1.84967199
0.66,-37.877492,-212.253777,-9.74537994,0.000104685853,-2.52851689e-06,-1.88972399
0.68,-32.5199733,-215.27937,-9.74588659,0.000100673236,-8.06030113e-07,-1.92534063
0.7,-26.8369643,-218.220657,-9.74641431,9.61364244e-05,1.03893086e-06,-1.95652188
0.72,-20.7629526,-219.379705,-9.74696228,9.11099619e-05,3.07446778e-06,-1.98206403
0.74,-14.5378339,-220.404975,-9.74753266,8.56572728e-05,5.36666434e-06,-2.00076332
0.76,-8.19236646,-221.284438,-9.74812706,7.9868982e-05,7.89893777e-06,-2.01261975
0.78,-1.75823134,-222.009259,-9.74874662,7.38401931e-05,1.06551665e-05,-2.01763332
0.8,4.73215129,-222.57395,-9.74939194,6.76693056e-05,1.36198644e-05,-2.01580404
0.82,11.1517615,-221.281955,-9.75006037,6.14551959e-05,1.67619795e-05,-2.00736926
0.84,17.4280897,-219.839363,-9.75074849,5.52926353e-05,2.00524152e-05,-1.99256632
0.86,23.5324541,-218.258645,-9.75145481,4.92752055e-05,2.34800145e-05,-1.97139525
0.88,29.437496,-216.55504,-9.75217744,4.34950602e-05,2.70348043e-05,-1.94385602
0.9,35.1172976,-214.746305,-9.75291409,3.80418052e-05,3.07081057e-05,-1.90994865
0.92,40.2959081,-211.211633,-9.75365595,3.29696696e-05,3.43990067e-05,-1.87111095
0.94,45.0931129,-207.632054,-9.75439985,2.83013609e-05,3.80105073e-05,-1.82878072
0.96,49.5048798,-204.033089,-9.75514304,2.40743921e-05,4.15415581e-05,-1.78295796
0.98,53.5288454,-200.439776,-9.75588284,2.03230511e-05,4.49920789e-05,-1.73364268
1,57.164164,-196.876451,-9.75661667,1.70780724e-05,4.83629426e-05,-1.68083487
1.02,60.0635337,-191.838296,-9.75733012,1.43178084e-05,5.15840556e-05,-1.62595315
1.04,62.489841,-186.896132,-9.75802643,1.19954673e-05,5.45879635e-05,-1.57041613
1.06,64.461985,-182.070001,-9.75870411,1.01006046e-05,5.73804097e-05,-1.51422381
1.08,65.9990021,-177.377439,-9.7593619,8.62198188e-06,5.99673791e-05,-1.45737618
1.1,67.1198872,-172.833562,-9.75999882,7.5475785e-06,6.23550504e-05,-1.39987326
1.12,67.4839227,-167.072465,-9.76059688,6.83207077e-06,6.45307016e-05,-1.34247041
1.14,67.4017886,-161.501172,-9.76116704,6.42134686e-06,6.64824373e-05,-1.28592301
1.16,66.9013259,-156.127369,-9.76170935,6.29035876e-06,6.82176154e-05,-1.23023107
1.18,66.009212,-150.956325,-9.76222402,6.41504358e-06,6.97433379e-05,-1.17539458
1.2,64.7509071,-145.991114,-9.76271139,6.77233311e-06,7.10664314e-05,-1.12141354
1.22,62.8644023,-140.023852,-9.76315165,7.33109887e-06,7.22021695e-05,-1.0684768
1.24,60.6095923,-134.274858,-9.76356104,8.06005455e-06,7.31657698e-05,-1.01677321
1.26,58.0131233,-128.742014,-9.76394034,8.93759008e-06,7.39634578e-05,-0.966302761
1.28,55.1001094,-123.421618,-9.76429038,9.94334415e-06,7.46010605e-05,-0.917065463
1.3,51.8941653,-118.308594,-9.76461199,1.10581891e-05,7.50840107e-05,-0.869061311
1.32,48.2760147,-112.370013,-9.76488538,1.22704297e-05,7.54310442e-05,-0.822181163
1.34,44.3745912,-106.630273,-9.76512879,1.35703519e-05,7.56606518e-05,-0.776315877
1.36,40.2118018,-101.081735,-9.76534309,1.49434032e-05,7.57773302e-05,-0.731465452
1.38,35.8082415,-95.7158466,-9.76552913,1.6375942e-05,7.57852149e-05,-0.687629889
1.4,31.1832484,-90.5232917,-9.76568771,1.78552271e-05,7.5688092e-05,-0.644809187
1.42,26.4106556,-84.6620091,-9.76580115,1.93828168e-05,7.54996195e-05,-0.60277039
1.44,21.4316591,-78.9526659,-9.76588681,2.09620342e-05,7.523326e-05,-0.561280543
1.46,16.2636564,-73.3848597,-9.7659454,2.25838388e-05,7.48920326e-05,-0.520339646
1.48,10.9231721,-67.947604,-9.76597758,2.42397082e-05,7.44786707e-05,-0.479947698
1.5,5.42590876,-62.6294198,-9.76598398,2.59216383e-05,7.39956297e-05,-0.4401047
1.52,0.0710625303,-56.7965668,-9.76595097,2.76388526e-05,7.34512583e-05,-0.400523689
1.54,-5.42147945,-51.0542998,-9.76589284,2.94016652e-05,7.28537797e-05,-0.360917702
1.56,-11.0370911,-45.3905726,-9.76581014,3.12042294e-05,7.22050778e-05,-0.321286739
1.58,-16.7615098,-39.7928299,-9.76570337,3.3040882e-05,7.15067969e-05,-0.281630801
1.6,-22.5807898,-34.2480665,-9.765573,3.49061509e-05,7.07603409e-05,-0.241949887
1.62,-27.9586774,-28.3520005,-9.76541099,3.68138009e-05,6.9971289e-05,-0.201913787
1.64,-33.4074188,-22.4775097,-9.76522708,3.87779806e-05,6.91451173e-05,-0.161192292
1.66,-38.9127862,-16.6111012,-9.76502173,4.07938227e-05,6.82827114e-05,-0.119785402
1.68,-44.4603359,-10.7387478,-9.7647954,4.28563042e-05,6.73847029e-05,-0.0776931154
1.7,-50.0353534,-4.84594271,-9.76454856,4.49602478e-05,6.64514579e-05,-0.0349154338
1.72,-54.8750412,1.21617196,-9.76427962,4.71217016e-05,6.54895128e-05,0.00893054974
1.74,-59.7114026,7.32897841,-9.76399299,4.93562128e-05,6.45052449e-05,0.0542277414
1.76,-64.5276866,13.5072688,-9.76368921,5.16572591e-05,6.3498326e-05,0.100976141
1.78,-69.3062181,19.7663024,-9.76336886,5.40176576e-05,6.2468076e-05,0.149175749
1.8,-74.0283142,26.1217154,-9.76303254,5.64295365e-05,6.14134356e-05,0.198826565
1.82,-77.7395754,32.4358696,-9.76268521,5.89064749e-05,6.03469773e-05,0.250349228
1.84,-81.3546767,38.8694595,-9.76232593,6.14601349e-05,5.92809366e-05,0.304164377
1.86,-84.8508534,45.4372232,-9.76195546,6.40780984e-05,5.8213056e-05,0.360272012
1.88,-88.2035633,52.1539013,-9.76157463,6.67463543e-05,5.714052e-05,0.418672132
1.9,-91.3863655,59.0340478,-9.76118431,6.94491942e-05,5.60599102e-05,0.479364737
1.92,-93.3167885,65.6181994,-9.76079488,7.21846276e-05,5.49950031e-05,0.542669651
1.94,-95.0282951,72.370523,-9.76040087,7.49467744e-05,5.39689296e-05,0.608906695
1.96,-96.4891017,79.3009135,-9.76000327,7.77105167e-05,5.29762255e-05,0.678075869
1.98,-97.66494,86.4179788,-9.75960308,8.04475753e-05,5.20105861e-05,0.750177174
2,-98.5189512,93.7286698,-9.7592012,8.31262816e-05,5.10648109e-05,0.825210609
2.02,-97.9405998,100.416243,-9.75881057,8.57013755e-05,5.01688642e-05,0.902919145
2.04,-96.9910876,107.263538,-9.75842277,8.81242267e-05,4.93519586e-05,0.983045752
2.06,-95.6320999,114.26466,-9.75803833,9.03523144e-05,4.86043846e-05,1.06559043
2.08,-93.8234228,121.410332,-9.75765754,9.23387615e-05,4.79155111e-05,1.15055318
2.1,-91.523046,128.687399,-9.7572804,9.40320676e-05,4.72737742e-05,1.237934
2.12,-87.7409105,134.901498,-9.75691742,9.53189447e-05,4.6671886e-05,1.32591351
2.14,-83.4540939,141.149737,-9.75655898,9.60990418e-05,4.61033274e-05,1.41267234
2.16,-78.6374535,147.397161,-9.75620348,9.63362725e-05,4.55569268e-05,1.49821047
2.18,-73.2676147,153.605184,-9.75584882,9.5994051e-05,4.50215159e-05,1.58252791
2.2,-67.3233761,159.731551,-9.75549245,9.50352693e-05,4.44860377e-05,1.66562467
2.22,-60.1339158,164.242656,-9.75513775,9.33502113e-05,4.38412989e-05,1.74373487
2.24,-52.4686171,168.524099,-9.75477647,9.08851529e-05,4.2983547e-05,1.81309266
2.26,-44.3529002,172.523028,-9.75440458,8.76942e-05,4.191167e-05,1.87369803
2.28,-35.8180547,176.190087,-9.75401812,8.38409086e-05,4.06268137e-05,1.92555099
2.3,-26.9009913,179.480303,-9.75361337,7.93973881e-05,3.91324513e-05,1.96865153
2.32,-17.4331572,180.681835,-9.75318953,7.44325692e-05,3.73371716e-05,2.00043371
2.34,-7.82586747,181.418071,-9.75274494,6.90681739e-05,3.51567786e-05,2.01833156
2.36,1.84847235,181.673295,-9.75227823,6.34673496e-05,3.26097418e-05,2.02234509
2.38,11.5162096,181.443503,-9.75178906,5.77987519e-05,2.97175496e-05,2.01247429
2.4,21.1038287,180.736503,-9.75127815,5.22334215e-05,2.6504425e-05,1.98871918
2.42,30.2563936,177.906622,-9.75075059,4.69176952e-05,2.30785185e-05,1.9531569
2.44,39.0742444,174.670636,-9.75021137,4.19580927e-05,1.95462709e-05,1.90786464
2.46,47.5127818,171.069655,-9.74966396,3.74626139e-05,1.59319718e-05,1.85284238
2.48,55.5328774,167.150548,-9.74911224,3.35337662e-05,1.22607322e-05,1.78809013
2.5,63.1012994,162.965023,-9.74856029,3.0266978e-05,8.55824301e-06,1.71360789
2.52,69.4840189,157.094332,-9.74802026,2.7651857e-05,4.95918245e-06,1.63326888
2.54,75.2977221,151.10579,-9.74749374,2.56145589e-05,1.5896187e-06,1.5509463
2.56,80.5581009,145.044516,-9.74698363,2.41481416e-05,-1.53792615e-06,1.46664015
2.58,85.2836686,138.952476,-9.74649235,2.32443679e-05,-4.41164919e-06,1.38035045
2.6,89.4953565,132.868413,-9.74602187,2.28935978e-05,-7.02042686e-06,1.29207718
2.62,92.2348551,125.657741,-9.74558588,2.30111009e-05,-9.35072872e-06,1.2039045
2.64,94.4642234,118.56087,-9.74517818,2.34906803e-05,-1.13947986e-05,1.11791655
2.66,96.2248426,111.59441,-9.74479898,2.42915733e-05,-1.31512754e-05,1.03411335
2.68,97.5566025,104.770873,-9.74444818,2.53758381e-05,-1.46195436e-05,0.952494885
2.7,98.4977555,98.0991493,-9.74412538,2.67082338e-05,-1.5799639e-05,0.873061159
2.72,97.9911597,90.7567364,-9.74384274,2.82402184e-05,-1.67304901e-05,0.796200552
2.74,97.1416069,83.6066766,-9.74359044,2.99238153e-05,-1.7452493e-05,0.722301446
2.76,95.9871687,76.6437287,-9.74336757,3.17284828e-05,-1.79686999e-05,0.651363842
2.78,94.5633044,69.8607375,-9.74317317,3.3626108e-05,-1.82826149e-05,0.583387738
2.8,92.9029543,63.2490292,-9.74300623,3.55908881e-05,-1.83981404e-05,0.518373135
2.82,89.9637557,56.3054814,-9.74287545,3.76138883e-05,-1.83492145e-05,0.456035957
2.84,86.8379447,49.5319848,-9.74277243,3.9690005e-05,-1.81692109e-05,0.396092129
2.86,83.5531749,42.9144542,-9.74269629,4.18017962e-05,-1.78616656e-05,0.338541651
2.88,80.1350897,36.4384925,-9.74264616,4.39330521e-05,-1.74303718e-05,0.283384522
2.9,76.6074469,30.0895997,-9.74262122,4.60687494e-05,-1.68793561e-05,0.230620742
2.92,72.0368235,23.6707091,-9.74262497,4.82177922e-05,-1.62279796e-05,0.179830333
2.94,67.3975803,17.3573485,-9.74265349,5.03916726e-05,-1.54945055e-05,0.130593318
2.96,62.7091507,11.1338356,-9.74270615,5.2580447e-05,-1.4681601e-05,0.082909695
2.98,57.9898558,4.98482911,-9.74278235,5.47746191e-05,-1.37920918e-05,0.0367794649
3,53.2569935,-1.10457332,-9.74288152,5.69651384e-05,-1.2828953e-05,-0.00779737228
3.02,47.753392,-7.04896469,-9.74300092,5.9165469e-05,-1.18019878e-05,-0.0512104013
3.04,42.2680128,-12.9634965,-9.74314233,6.13902928e-05,-1.07199106e-05,-0.0938492067
3.06,36.8158735,-18.8628554,-9.74330528,6.36327061e-05,-9.58425844e-06,-0.135713789
3.08,31.4116384,-24.7612487,-9.74348932,6.58857959e-05,-8.3966856e-06,-0.176804147
3.1,26.069677,-30.6723481,-9.74369397,6.81426518e-05,-7.15896248e-06,-0.217120281
3.12,20.2493618,-36.253501,-9.74391013,7.0415865e-05,-5.8770999e-06,-0.256998396
3.14,14.5160541,-41.8788584,-9.74414528,7.27182405e-05,-4.55614433e-06,-0.296774692
3.16,8.88364556,-47.5616097,-9.74439897,7.50429233e-05,-3.19659048e-06,-0.336449172
3.18,3.36627752,-53.3144911,-9.7446707,7.73826972e-05,-1.799049e-06,-0.376021834
3.2,-2.02161226,-59.1497291,-9.74495995,7.97299899e-05,-3.64252779e-07,-0.415492679
3.22,-7.58877118,-64.4898285,-9.74525194,8.20937979e-05,1.10137178e-06,-0.455153865
3.24,-13.0068328,-69.9413405,-9.74555906,8.44824539e-05,2.59222854e-06,-0.495297547
3.26,-18.2604291,-75.5159469,-9.74588072,8.6886561e-05,4.10862701e-06,-0.535923727
3.28,-23.3334297,-81.2248521,-9.74621628,8.92959577e-05,5.65072298e-06,-0.577032404
3.3,-28.2088914,-87.0786964,-9.74656503,9.16997038e-05,7.21850399e-06,-0.618623579
3.32,-32.9716784,-92.2827627,-9.74690799,9.4099715e-05,8.80222387e-06,-0.660939056
3.34,-37.5213866,-97.6543091,-9.74726102,9.64962949e-05,1.03927735e-05,-0.704220639
3.36,-41.8391998,-103.202996,-9.74762335,9.88745438e-05,1.19907962e-05,-0.74846833
3.38,-45.9050925,-108.937769,-9.74799412,0.000101218262,1.35966972e-05,-0.793682128
3.4,-49.6977746,-114.866724,-9.74837248,0.000103509911,1.52106174e-05,-0.839862033
3.42,-53.1089692,-119.990226,-9.74873739,0.000105737644,1.68188158e-05,-0.887139474
3.44,-56.2364266,-125.318428,-9.74910637,0.000107887235,1.84077704e-05,-0.935645883
3.46,-59.0570186,-130.857109,-9.74947855,0.000109935178,1.99774755e-05,-0.985381259
3.48,-61.5461276,-136.610769,-9.74985307,0.000111856095,2.15275474e-05,-1.0363456
3.5,-63.6776089,-142.582422,-9.75022908,0.000113622677,2.30571837e-05,-1.08853891
3.52,-65.2039071,-147.575635,-9.75058648,0.000115199294,2.4554458e-05,-1.14182288
3.54,-66.3726003,-152.777494,-9.75094239,0.000116549003,2.60067732e-05,-1.19605918
3.56,-67.1581495,-158.186186,-9.75129636,0.000117639643,2.74115989e-05,-1.25124781
3.58,-67.533719,-163.797801,-9.75164802,0.00011843717,2.87658571e-05,-1.30738878
3.6,-67.4712165,-169.606099,-9.75199718,0.000118905623,3.00658715e-05,-1.36448209
3.62,-66.6611669,-174.226387,-9.75232808,0.000118980921,3.13206517e-05,-1.42185618
3.64,-65.4383292,-179.005985,-9.7526557,0.000118604899,3.25371035e-05,-1.47883949
3.66,-63.7822223,-183.931344,-9.7529808,0.000117748998,3.37074893e-05,-1.53543202
3.68,-61.6721306,-188.98644,-9.7533044,0.000116384672,3.48234824e-05,-1.59163376
3.7,-59.0872702,-194.152663,-9.75362778,0.000114483448,3.58761406e-05,-1.64744473
3.72,-55.753249,-197.877339,-9.75394244,0.000111978814,3.69208988e-05,-1.70151348
3.74,-52.0206624,-201.649187,-9.75425959,0.000108826978,3.80099543e-05,-1.75248856
3.76,-47.8872449,-205.444413,-9.75458166,0.000105036853,3.91289027e-05,-1.80036998
3.78,-43.3520963,-209.238178,-9.75491126,0.000100621545,4.0263213e-05,-1.84515772
3.8,-38.4158529,-213.004788,-9.75525107,9.55982408e-05,4.13982953e-05,-1.88685181
3.82,-32.936943,-215.07269,-9.7555994,8.99663191e-05,4.26165099e-05,-1.92395071
3.84,-27.2045528,-217.049933,-9.75596185,8.37598882e-05,4.39981453e-05,-1.95495293
3.86,-21.2419927,-218.916801,-9.75634093,7.70561197e-05,4.55261779e-05,-1.97985845
3.88,-15.0741716,-220.655736,-9.75673884,6.99379851e-05,4.71846073e-05,-1.99866729
3.9,-8.72751311,-222.251618,-9.7571574,6.24933048e-05,4.89586167e-05,-2.01137943
3.92,-2.25058286,-221.99648,-9.7575962,5.48143575e-05,5.08668363e-05,-2.0175607
3.94,4.20760992,-221.58082,-9.75805441,4.70059359e-05,5.29293903e-05,-2.01677689
3.96,10.613812,-221.006974,-9.75853182,3.91788646e-05,5.51360806e-05,-2.00902802
3.98,16.9352225,-220.280767,-9.75902774,3.14444336e-05,5.74786589e-05,-1.99431408
4,23.1396932,-219.411407,-9.75954088,2.39129977e-05,5.99509209e-05,-1.97263507
4.02,29.0046193,-216.739884,-9.760066,1.66751936e-05,6.24755951e-05,-1.94506142
4.04,34.5716083,-213.968923,-9.76059965,9.79570003e-06,6.49788717e-05,-1.91266354
4.06,39.8251456,-211.121104,-9.76113924,3.34182358e-06,6.74624847e-05,-1.87544144
4.08,44.7515761,-208.219936,-9.76168203,-2.62307316e-06,6.99297037e-05,-1.83339513
4.1,49.3390495,-205.289557,-9.76222517,-8.04022501e-06,7.23852916e-05,-1.78652459
4.12,53.2601505,-200.773631,-9.76275726,-1.29023934e-05,7.47444992e-05,-1.73639056
4.14,56.7282794,-196.297501,-9.76327921,-1.72351475e-05,7.69246558e-05,-1.68455379
4.16,59.7542993,-191.885134,-9.76378882,-2.10344323e-05,7.89350486e-05,-1.63101428
4.18,62.3499254,-187.558535,-9.7642841,-2.42984376e-05,8.07853382e-05,-1.57577202
4.2,64.5275252,-183.337704,-9.76476333,-2.70276285e-05,8.24854959e-05,-1.51882701
4.22,65.9345512,-177.796522,-9.76521076,-2.92666607e-05,8.40055697e-05,-1.46122804
4.24,66.8743546,-172.414321,-9.76563512,-3.10761517e-05,8.53157934e-05,-1.40402389
4.26,67.3727006,-167.203952,-9.76603588,-3.24818843e-05,8.64263205e-05,-1.34721456
4.28,67.4546194,-162.175638,-9.76641274,-3.3509144e-05,8.73469008e-05,-1.29080004
4.3,67.1442982,-157.337164,-9.76676558,-3.41826758e-05,8.80868662e-05,-1.23478034
4.32,66.1386376,-151.41274,-9.76707609,-3.45449507e-05,8.86555554e-05,-1.17954659
4.34,64.7296769,-145.701871,-9.76735958,-3.46412464e-05,8.90618195e-05,-1.12548991
4.36,62.9453179,-140.205971,-9.76761661,-3.44990155e-05,8.93134761e-05,-1.0726103
4.38,60.8119851,-134.924508,-9.76784786,-3.41442833e-05,8.94177381e-05,-1.02090777
4.4,58.3546311,-129.855236,-9.76805404,-3.3601654e-05,8.93812328e-05,-0.970382311
4.42,55.3875838,-123.890518,-9.768216,-3.28932753e-05,8.92232863e-05,-0.921020417
4.44,52.1025001,-118.137088,-9.76835238,-3.20395575e-05,8.89628542e-05,-0.872808582
4.46,48.5233778,-112.58916,-9.76846406,-3.10605006e-05,8.86051741e-05,-0.825746806
4.48,44.6727685,-107.239796,-9.76855193,-2.9974866e-05,8.81549609e-05,-0.779835091
4.5,40.5718288,-102.081081,-9.76861683,-2.8800195e-05,8.76164314e-05,-0.735073434
4.52,36.2090425,-96.1895971,-9.76864077,-2.75416687e-05,8.70053683e-05,-0.691266902
4.54,31.6090813,-90.4718842,-9.76864253,-2.6202291e-05,8.63374624e-05,-0.648220559
4.56,26.7910608,-84.918473,-9.76862293,-2.47948334e-05,8.5616134e-05,-0.605934405
4.58,21.7730285,-79.5192113,-9.76858269,-2.33312697e-05,8.48444168e-05,-0.56440844
4.6,16.5720177,-74.2633779,-9.76852253,-2.18227827e-05,8.40249762e-05,-0.523642663
4.62,11.3908519,-68.4282667,-9.76842758,-2.02641503e-05,8.31678711e-05,-0.483368876
4.64,6.04408381,-62.71048,-9.76831429,-1.86485978e-05,8.22832795e-05,-0.443318875
4.66,0.547232914,-57.0985967,-9.76818326,-1.69840895e-05,8.13735599e-05,-0.403492663
4.68,-5.08476282,-51.5806772,-9.76803507,-1.52781824e-05,8.04407831e-05,-0.363890238
4.7,-10.8374999,-46.1443326,-9.76787022,-1.35380205e-05,7.94867393e-05,-0.3245116
4.72,-16.2733574,-40.2869809,-9.7676787,-1.17522001e-05,7.85178114e-05,-0.285045319
4.74,-21.8081814,-34.4805509,-9.76747279,-9.90848845e-06,7.75406248e-05,-0.245179964
4.76,-27.4278991,-28.7121524,-9.76725296,-8.01242642e-06,7.65569389e-05,-0.204915534
4.78,-33.1184746,-22.9683728,-9.76701968,-6.069482e-06,7.55682552e-05,-0.16425203
4.8,-38.8658599,-17.2353301,-9.76677339,-4.08504125e-06,7.45758132e-05,-0.123189452
4.82,-43.998705,-11.2544439,-9.76651006,-2.04389742e-06,7.35857479e-05,-0.0813677188
4.84,-49.1606528,-5.25300612,-9.76623667,6.92130495e-08,7.26044862e-05,-0.0384267506
4.86,-54.336397,0.783293202,-9.76595372,2.24881801e-06,7.16332821e-05,0.00563345251
4.88,-59.5100213,6.86928621,-9.7656617,4.48912628e-06,7.0673076e-05,0.0508128907
4.9,-64.6649298,13.0202582,-9.76536115,6.78402491e-06,6.97244732e-05,0.0971115638
4.92,-68.9204662,19.2218193,-9.76505445,9.1494202e-06,6.87979571e-05,0.144940736
4.94,-73.1215056,25.5153732,-9.76474291,1.16001727e-05,6.79042369e-05,0.194711672
4.96,-77.2482283,31.9159996,-9.76442719,1.41276553e-05,6.70436519e-05,0.246424371
4.98,-81.2794034,38.4390485,-9.76410801,1.67222682e-05,6.62160539e-05,0.300078834
5,-85.1922816,45.1000018,-9.76378612,1.93733913e-05,6.54207627e-05,0.355675061
5.02,-87.9478406,51.5777159,-9.76346976,2.2089246e-05,6.46782546e-05,0.413607027
5.04,-90.5396814,58.207537,-9.76315501,2.48752854e-05,6.40089131e-05,0.474268712
5.06,-92.9399747,65.0023041,-9.76284283,2.77144065e-05,6.34109296e-05,0.537660114
5.08,-95.1186366,71.9742308,-9.76253417,3.05873481e-05,6.2881689e-05,0.603781234
5.1,-97.0432018,79.1346177,-9.76222999,3.34725443e-05,6.2417697e-05,0.672632071
5.12,-97.5998432,85.8192396,-9.76194231,3.63496727e-05,6.20505281e-05,0.744286513
5.14,-97.8508774,92.6775828,-9.76166332,3.91943877e-05,6.1810902e-05,0.818818448
5.16,-97.7596286,99.7120733,-9.7613939,4.197466e-05,6.16925055e-05,0.896227876
5.18,-97.2869978,106.922651,-9.76113481,4.46547875e-05,6.16878503e-05,0.976514796
5.2,-96.3914471,114.306297,-9.76088662,4.719514e-05,6.17881893e-05,1.05967921
5.22,-94.0111872,120.825875,-9.76066098,4.95154003e-05,6.20114442e-05,1.1446908
5.24,-91.1726868,127.44986,-9.76044795,5.15381487e-05,6.23737909e-05,1.23051927
5.26,-87.8413095,134.156385,-9.76024702,5.32229705e-05,6.28621294e-05,1.31716461
5.28,-83.9822446,140.919464,-9.76005729,5.4526632e-05,6.34623685e-05,1.40462683
5.3,-79.5608211,147.70865,-9.75987741,5.54029239e-05,6.41594277e-05,1.49290591
5.32,-73.7474276,153.120067,-9.75971321,5.57259872e-05,6.48842348e-05,1.57891806
5.34,-67.4138557,158.423446,-9.75955458,5.5405176e-05,6.55671224e-05,1.65957944
5.36,-60.5604841,163.568738,-9.75939818,5.44486895e-05,6.61920339e-05,1.73489006
5.38,-53.1924106,168.505399,-9.7592404,5.28697019e-05,6.67439363e-05,1.80484993
5.4,-45.3196637,173.182961,-9.75907739,5.06860661e-05,6.72090057e-05,1.86945903
5.42,-36.5497942,175.935458,-9.75890801,4.78801039e-05,6.74464341e-05,1.9250402
5.44,-27.4638736,178.29726,-9.75872626,4.4498597e-05,6.73196578e-05,1.96791625
5.46,-18.1211566,180.229983,-9.75852884,4.06670788e-05,6.68251984e-05,1.9980872
5.48,-8.58531475,181.704712,-9.75831322,3.65193591e-05,6.59636195e-05,2.01555303
5.5,1.07664298,182.702708,-9.75807779,3.21951354e-05,6.47395775e-05,2.02031374
5.52,10.7161642,181.523215,-9.75782313,2.78369039e-05,6.31673453e-05,2.01248059
5.54,20.2079546,179.870755,-9.75755125,2.35863324e-05,6.12655921e-05,1.9921648
5.56,29.486569,177.766672,-9.75726408,1.9583601e-05,5.90513808e-05,1.95936638
5.58,38.490204,175.242147,-9.75696435,1.59653022e-05,5.65452329e-05,1.91408533
5.6,47.161722,172.337453,-9.75665551,1.28619991e-05,5.37708295e-05,1.85632165
5.62,54.9037846,167.528708,-9.75634628,1.03224066e-05,5.0883246e-05,1.7898176
5.64,62.1317507,162.474433,-9.75603971,8.33051823e-06,4.80341003e-05,1.71831545
5.66,68.838353,157.225043,-9.75573957,6.91107784e-06,4.5244337e-05,1.6418152
5.68,75.0210944,151.830629,-9.75544939,6.08491742e-06,4.25351485e-05,1.56031684
5.7,80.6820032,146.340443,-9.75517239,5.86857339e-06,3.99278345e-05,1.47382038
5.72,84.9397861,139.497452,-9.754921,6.180197e-06,3.7489351e-05,1.38531819
5.74,88.6387769,132.690527,-9.75469086,6.90245263e-06,3.52804714e-05,1.29780264
5.76,91.8146371,125.948762,-9.75448318,7.99701421e-06,3.33123013e-05,1.21127374
5.78,94.5029779,119.29678,-9.75429874,9.42788371e-06,3.15947767e-05,1.12573149
5.8,96.7390619,112.755097,-9.75413791,1.11612622e-05,3.01367424e-05,1.04117588
5.82,97.4923859,105.369141,-9.75401257,1.31277728e-05,2.8915098e-05,0.958564521
5.84,97.8304549,98.1592302,-9.75391255,1.52542882e-05,2.79036195e-05,0.878855031
5.86,97.7945753,91.1274535,-9.75383719,1.7505419e-05,2.71048547e-05,0.802047405
5.88,97.4235768,84.2730433,-9.75378571,1.98489008e-05,2.65203189e-05,0.728141644
5.9,96.7538379,77.5928447,-9.75375718,2.22554137e-05,2.61505942e-05,0.657137747
5.92,94.7240237,70.451531,-9.75376091,2.4703967e-05,2.59597006e-05,0.588935367
5.94,92.4469665,63.497404,-9.75378632,2.71771712e-05,2.59112324e-05,0.523434155
5.96,89.9546559,56.7188126,-9.75383245,2.96546229e-05,2.60039697e-05,0.46063411
5.98,87.2767317,50.1032605,-9.75389832,3.21177213e-05,2.62360553e-05,0.400535234
6,84.4406103,43.6376857,-9.75398301,3.45495741e-05,2.66050561e-05,0.343137525
6.02,80.4577839,37.0002476,-9.75409141,3.69559866e-05,2.70872814e-05,0.288042437
6.04,76.361762,30.4977477,-9.75421655,3.93455725e-05,2.76597264e-05,0.234851424
6.06,72.1749388,24.1146536,-9.75435768,4.17074591e-05,2.83202915e-05,0.183564486
6.08,67.9182303,17.8355902,-9.75451411,4.40315299e-05,2.90665082e-05,0.134181622
6.1,63.6111797,11.6454747,-9.75468515,4.63084032e-05,2.98955699e-05,0.0867028326
6.12,58.4169066,5.51533626,-9.75486999,4.85521899e-05,3.07949471e-05,0.040718587
6.14,53.2076698,-0.553198758,-9.75506719,5.0778272e-05,3.17530384e-05,-0.00418064531
6.16,47.9998811,-6.57536507,-9.75527623,5.29798375e-05,3.27680094e-05,-0.0479948645
6.18,42.8093056,-12.5659396,-9.75549663,5.51502464e-05,3.3837791e-05,-0.0907240705
6.2,37.6511303,-18.539174,-9.75572787,5.72830391e-05,3.49600916e-05,-0.132368263
6.22,31.8914147,-24.2564638,-9.75596291,5.93924774e-05,3.61277714e-05,-0.173285133
6.24,26.1915007,-29.9877626,-9.75620639,6.1493008e-05,3.7334566e-05,-0.213832367
6.26,20.5653958,-35.7468857,-9.75645785,6.35784326e-05,3.85791916e-05,-0.254009968
6.28,15.0271214,-41.5471801,-9.75671683,6.56423526e-05,3.98601712e-05,-0.293817934
6.3,9.59076174,-47.401472,-9.75698285,6.76781798e-05,4.11758335e-05,-0.333256267
6.32,3.85078316,-52.8275034,-9.75724305,6.96970821e-05,4.25197158e-05,-0.372634499
6.34,-1.76572627,-58.338067,-9.75750762,7.17095809e-05,4.38861031e-05,-0.412262167
6.36,-7.24429041,-63.9454855,-9.75777605,7.37075679e-05,4.52741392e-05,-0.45213927
6.38,-12.5698762,-69.6616317,-9.75804775,7.56823802e-05,4.66827453e-05,-0.492265808
6.4,-17.7268464,-75.4978564,-9.75832212,7.76247999e-05,4.81106088e-05,-0.532641782
6.42,-22.8907531,-80.7479945,-9.75858166,7.95402225e-05,4.95484697e-05,-0.573533187
6.44,-27.8688443,-86.1440171,-9.75884097,8.14325618e-05,5.09876341e-05,-0.61520602
6.46,-32.6439279,-91.6965555,-9.75909933,8.3289223e-05,5.24272314e-05,-0.657660282
6.48,-37.1977781,-97.4156609,-9.75935599,8.50966098e-05,5.3866075e-05,-0.700895972
6.5,-41.5110808,-103.310689,-9.75961013,8.68401044e-05,5.53026382e-05,-0.744913091
6.52,-45.5506915,-108.466064,-9.75984154,8.85144473e-05,5.67228511e-05,-0.789901592
6.54,-49.3368202,-113.813694,-9.7600675,9.01121053e-05,5.81128808e-05,-0.83605143
6.56,-52.8481151,-119.361318,-9.76028715,9.1613146e-05,5.94709539e-05,-0.883362605
6.58,-56.0618169,-125.115671,-9.7604996,9.29961036e-05,6.07948271e-05,-0.931835117
6.6,-58.953709,-131.082309,-9.76070396,9.42379412e-05,6.20817491e-05,-0.981468966
6.62,-61.3261087,-136.145808,-9.76087987,9.53142501e-05,6.33150499e-05,-1.03226534
6.64,-63.3711893,-141.421593,-9.76104536,9.61986007e-05,6.44776671e-05,-1.08422541
6.66,-65.0638926,-146.911564,-9.76119972,9.68623826e-05,6.55654024e-05,-1.13734919
6.68,-66.3776982,-152.615867,-9.76134228,9.72751711e-05,6.65734162e-05,-1.19163667
6.7,-67.2846214,-158.532666,-9.76147249,9.74047033e-05,6.74961824e-05,-1.24708785
6.72,-67.4900888,-163.354136,-9.76157317,9.7199319e-05,6.8327553e-05,-1.30328711
6.74,-67.3008863,-168.363114,-9.76166113,9.66098899e-05,6.90600309e-05,-1.35981881
6.76,-66.6930682,-173.551278,-9.76173653,9.56059209e-05,6.96850495e-05,-1.41668295
6.78,-65.6418959,-178.907851,-9.76179971,9.41560995e-05,7.01933892e-05,-1.47387953
6.8,-64.1219518,-184.419417,-9.76185127,9.22283422e-05,7.05751531e-05,-1.53140856
6.82,-61.8317148,-188.599243,-9.76188054,8.97543905e-05,7.08618024e-05,-1.58819005
6.84,-59.124239,-192.879656,-9.76190145,8.66822391e-05,7.10827429e-05,-1.64314404
6.86,-55.9880099,-197.240195,-9.76191579,8.30055288e-05,7.12243534e-05,-1.69627054
6.88,-52.4122394,-201.658463,-9.76192561,7.87204353e-05,7.12728889e-05,-1.74756953
6.9,-48.387066,-206.110188,-9.76193319,7.38256778e-05,7.12145319e-05,-1.79704103
6.92,-43.7052795,-208.964883,-9.76193562,6.82908646e-05,7.11282507e-05,-1.84311882
6.94,-38.6913663,-211.78412,-9.76194221,6.21194893e-05,7.10919043e-05,-1.88423672
6.96,-33.3583506,-214.543988,-9.76195578,5.5367611e-05,7.10907922e-05,-1.92039471
6.98,-27.7210681,-217.221354,-9.76197909,4.8096935e-05,7.11113832e-05,-1.9515928
7,-21.796207,-219.794169,-9.76201471,4.0374187e-05,7.11414395e-05,-1.977831
7.02,-15.5507804,-220.558347,-9.76206392,3.22652575e-05,7.12417698e-05,-1.99809101
7.04,-9.20094015,-221.176476,-9.76212968,2.38626484e-05,7.14748179e-05,-2.01135457
7.06,-2.77922385,-221.640396,-9.76221313,1.52789779e-05,7.18335476e-05,-2.01762166
7.08,3.68127931,-221.945387,-9.76231489,6.62918065e-06,7.23132602e-05,-2.01689231
7.1,10.147134,-222.09025,-9.76243503,-1.97093404e-06,7.29116502e-05,-2.00916649
7.12,16.4616744,-220.38692,-9.76257211,-1.04112399e-05,7.3593205e-05,-1.99494697
7.14,22.5849643,-218.543704,-9.76272434,-1.85947385e-05,7.43252853e-05,-1.97473648
7.16,28.4914709,-216.576614,-9.76288978,-2.64278004e-05,7.51132441e-05,-1.94853504
7.18,34.1572351,-214.503968,-9.76306619,-3.38206593e-05,7.59644272e-05,-1.91634263
7.2,39.5599424,-212.346104,-9.76325098,-4.06884369e-05,7.68880906e-05,-1.87815927
7.22,44.4059808,-208.499663,-9.76343643,-4.69897731e-05,7.77973842e-05,-1.83550407
7.24,48.8444845,-204.63249,-9.76362237,-5.2719149e-05,7.8606407e-05,-1.78989617
7.26,52.8760096,-200.770273,-9.76380611,-5.78524868e-05,7.93277013e-05,-1.74133556
7.28,56.5025947,-196.937713,-9.7639851,-6.23695325e-05,7.99743914e-05,-1.68982225
7.3,59.7275834,-193.158351,-9.76415693,-6.6254019e-05,8.0560095e-05,-1.63535623
7.32,62.1994915,-187.949299,-9.7643086,-6.95420396e-05,8.10347379e-05,-1.57926298
7.34,64.1964455,-182.856567,-9.76444702,-7.22935259e-05,8.13471777e-05,-1.52286794
7.36,65.739845,-177.898232,-9.76457096,-7.45313474e-05,8.15094256e-05,-1.46617113
7.38,66.8509502,-173.08977,-9.76467948,-7.62787178e-05,8.15330492e-05,-1.40917253
7.4,67.5507202,-168.444165,-9.76477185,-7.75591288e-05,8.14291608e-05,-1.35187215
7.42,67.5067917,-162.620806,-9.76483168,-7.84249929e-05,8.11956509e-05,-1.29491233
7.44,67.0278415,-156.996339,-9.76487333,-7.89355002e-05,8.08290807e-05,-1.2389354
7.46,66.1420167,-151.576501,-9.76489704,-7.91233463e-05,8.03376633e-05,-1.18394136
7.48,64.876178,-146.364732,-9.7649032,-7.90197076e-05,7.97288931e-05,-1.1299302
7.5,63.2558647,-141.362411,-9.76489228,-7.86542369e-05,7.90095787e-05,-1.07690193
7.52,61.03889,-135.389944,-9.76484615,-7.80609209e-05,7.81965971e-05,-1.02497786
7.54,58.4681103,-129.635202,-9.76478376,-7.72728335e-05,7.73061389e-05,-0.974279286
7.56,55.5694811,-124.094868,-9.76470597,-7.63158808e-05,7.63430042e-05,-0.924806219
7.58,52.3674342,-118.764172,-9.76461364,-7.52143424e-05,7.53113783e-05,-0.876558655
7.6,48.8849177,-113.637098,-9.76450762,-7.39909027e-05,7.421487e-05,-0.829536594
7.62,45.0320538,-107.711689,-9.76436986,-7.26587552e-05,7.30701223e-05,-0.78360124
7.64,40.9095377,-101.978702,-9.76422053,-7.12287102e-05,7.18937237e-05,-0.738613798
7.66,36.5384413,-96.429891,-9.76406049,-6.97178246e-05,7.06884469e-05,-0.694574269
7.68,31.9385896,-91.0561764,-9.76389057,-6.81420039e-05,6.94566274e-05,-0.651482651
7.7,27.1286164,-85.8477818,-9.76371155,-6.65160246e-05,6.82001927e-05,-0.609338945
7.72,22.2185306,-79.9963749,-9.76350749,-6.48393316e-05,6.69303572e-05,-0.567898401
7.74,17.1140426,-74.2873578,-9.76329687,-6.31095045e-05,6.56586693e-05,-0.526916267
7.76,11.8319399,-68.7100086,-9.76308039,-6.1337185e-05,6.4387032e-05,-0.486392545
7.78,6.38821944,-63.2530478,-9.76285868,-5.95323445e-05,6.31170479e-05,-0.446327234
7.8,0.79813704,-57.9047227,-9.76263233,-5.77042887e-05,6.18500347e-05,-0.406720335
7.82,-4.59948415,-52.0682748,-9.76238934,-5.58444449e-05,6.05929092e-05,-0.367277849
7.84,-10.1236528,-46.3112174,-9.76214439,-5.39431797e-05,5.93531364e-05,-0.32770578
7.86,-15.7599896,-40.6212603,-9.76189799,-5.20075e-05,5.81324752e-05,-0.288004128
7.88,-21.4943869,-34.9856024,-9.76165062,-5.00441227e-05,5.69324522e-05,-0.248172893
7.9,-27.3129631,-29.3909884,-9.76140276,-4.80594661e-05,5.57543653e-05,-0.208212075
7.92,-32.6400055,-23.4741291,-9.76114776,-4.60400842e-05,5.46039398e-05,-0.167783282
7.94,-38.0262261,-17.5667964,-9.76089498,-4.39722497e-05,5.34875808e-05,-0.126548123
7.96,-43.4571939,-11.6552553,-9.76064492,-4.1861781e-05,5.24072621e-05,-0.0845065968
7.98,-48.9181539,-5.72523455,-9.76039803,-3.97145562e-05,5.13647187e-05,-0.0416587044
8,-54.3939684,0.23801527,-9.7601548,-3.75365025e-05,5.03614367e-05,0.00199555458
8.02,-59.0864672,6.33748709,-9.75991466,-3.53117425e-05,4.94061602e-05,0.0468481012
8.04,-63.7616668,12.4997328,-9.75968103,-3.30250508e-05,4.85083765e-05,0.0932908565
8.06,-68.4020604,18.7396891,-9.75945448,-3.06837585e-05,4.76702569e-05,0.141323821
8.08,-72.9890819,25.0727199,-9.75923563,-2.8295729e-05,4.68936348e-05,0.190946993
8.1,-77.5030156,31.5145151,-9.75902512,-2.58693693e-05,4.61799778e-05,0.242160375
8.12,-80.9626151,37.8758785,-9.75882841,-2.33916669e-05,4.55466565e-05,0.295383185
8.14,-84.3077536,44.3669604,-9.75864302,-2.08516578e-05,4.50116559e-05,0.351034643
8.16,-87.5143063,51.0021576,-9.7584698,-1.826222e-05,4.45766816e-05,0.409114749
8.18,-90.5562252,57.7957222,-9.75830962,-1.56375997e-05,4.42428752e-05,0.469623504
8.2,-93.4054128,64.7615464,-9.7581634,-1.29934828e-05,4.40107582e-05,0.532560907
8.22,-94.966528,71.382449,-9.75804121,-1.03340692e-05,4.39109906e-05,0.598196403
8.24,-96.2847631,78.1755231,-9.75793575,-7.66718735e-06,4.39741529e-05,0.666799435
8.26,-97.3267733,85.1489628,-9.75784803,-5.01700324e-06,4.41994983e-05,0.738370005
8.28,-98.056688,92.3093568,-9.757779,-2.41036613e-06,4.45853469e-05,0.812908112
8.3,-98.4360223,99.6612852,-9.75772955,1.23015793e-07,4.5128993e-05,0.890413757
8.32,-97.3626067,106.325089,-9.7577112,2.53343837e-06,4.58641957e-05,0.970447567
8.34,-95.8917066,113.137414,-9.75771346,4.76987713e-06,4.68228293e-05,1.05257017
8.36,-93.9851714,120.088243,-9.75773667,6.79605411e-06,4.79976641e-05,1.13678157
8.38,-91.6033195,127.163862,-9.75778086,8.57242863e-06,4.93802417e-05,1.22308177
8.4,-88.7051007,134.346385,-9.7578457,1.0055999e-05,5.09607814e-05,1.31147076
8.42,-84.3392303,140.379107,-9.75793894,1.11349008e-05,5.27188719e-05,1.3997678
8.44,-79.4568557,146.409893,-9.7580488,1.17164792e-05,5.46297814e-05,1.48579214
8.46,-74.0387114,152.398698,-9.75817315,1.17847651e-05,5.66758136e-05,1.56954378
8.48,-68.068185,158.302423,-9.75830942,1.13249408e-05,5.88388007e-05,1.65102273
8.5,-61.5317148,164.075044,-9.75845459,1.03232146e-05,6.11001703e-05,1.73022897
8.52,-53.8326598,168.137865,-9.7586086,8.69948606e-06,6.33253884e-05,1.80326533
8.54,-45.6918455,171.921297,-9.75876144,6.43320144e-06,6.53767386e-05,1.86623461
8.56,-37.1452667,175.374288,-9.758909,3.60740922e-06,6.72322924e-05,1.91913681
8.58,-28.2347826,178.451111,-9.75904749,3.13038702e-07,6.88725911e-05,1.96197194
8.6,-19.0076249,181.112279,-9.75917354,-3.35257557e-06,7.02809225e-05,1.99473999
8.62,-9.38781749,181.640232,-9.75928411,-7.29107938e-06,7.13683687e-05,2.01555258
8.64,0.290457643,181.688024,-9.7593764,-1.1368302e-05,7.20493107e-05,2.02252132
8.66,9.95363114,181.250723,-9.75944995,-1.54278312e-05,7.23176303e-05,2.01564622
8.68,19.5283951,180.335181,-9.75950537,-1.93137472e-05,7.21718495e-05,1.99492727
8.7,28.9430766,178.959855,-9.75954431,-2.28735772e-05,7.16151357e-05,1.96036448
8.72,37.7668522,175.509859,-9.75957057,-2.59978267e-05,7.07597454e-05,1.91468269
8.74,46.1925817,171.694285,-9.75958672,-2.86281173e-05,6.97218112e-05,1.86060674
8.76,54.1861858,167.559239,-9.75959658,-3.06975153e-05,6.85156097e-05,1.79813662
8.78,61.7192162,163.154715,-9.75960412,-3.21458096e-05,6.71577107e-05,1.72727235
8.8,68.769044,158.533734,-9.75961337,-3.29204391e-05,6.56667374e-05,1.64801393
8.82,74.5542171,152.322703,-9.75963432,-3.30758495e-05,6.41576156e-05,1.56407578
8.84,79.7641652,146.042566,-9.75966473,-3.27181413e-05,6.27437038e-05,1.47917237
8.86,84.4218921,139.734456,-9.75970704,-3.18779774e-05,6.1442212e-05,1.39330368
8.88,88.5523436,133.435687,-9.75976318,-3.0585334e-05,6.02697085e-05,1.30646973
8.9,92.1820066,127.179828,-9.75983465,-2.88695971e-05,5.92420746e-05,1.2186705
8.92,94.3275537,119.883261,-9.75993237,-2.68220384e-05,5.83655312e-05,1.1316334
8.94,95.9882861,112.723773,-9.76004676,-2.4545591e-05,5.76433918e-05,1.04708582
8.96,97.2063398,105.713328,-9.76017774,-2.20836868e-05,5.70855744e-05,0.965027749
8.98,98.0219596,98.8601016,-9.76032494,-1.94758764e-05,5.67006467e-05,0.8854592
9,98.4734099,92.1689724,-9.76048778,-1.67580654e-05,5.64959148e-05,0.808380169
9.02,97.4984608,84.8712889,-9.76067557,-1.39711977e-05,5.64390398e-05,0.734004687
9.04,96.2091444,77.7673408,-9.76087625,-1.11532629e-05,5.6496324e-05,0.662546788
9.06,94.6418701,70.8496156,-9.76108886,-8.33097911e-06,5.66713259e-05,0.594006471
9.08,92.8304698,64.1090319,-9.76131241,-5.52833513e-06,5.69665893e-05,0.528383737
9.1,90.8063074,57.5353002,-9.76154592,-2.76676337e-06,5.73837297e-05,0.465678584
9.12,87.5394431,50.6781109,-9.76179528,-4.83173657e-08,5.78963754e-05,0.405560151
9.14,84.1084875,43.9819062,-9.76205082,2.62833511e-06,5.84780594e-05,0.347697576
9.16,80.5394599,37.4319891,-9.76231169,5.24967636e-06,5.91291116e-05,0.292090857
9.18,76.8565214,31.0135161,-9.76257705,7.80349231e-06,5.9849247e-05,0.238739996
9.2,73.082094,24.7116818,-9.76284614,1.02788065e-05,6.0637619e-05,0.187644993
9.22,68.3084405,18.3786927,-9.76311992,1.26885749e-05,6.1479499e-05,0.138385438
9.24,63.482592,12.1387846,-9.76339384,1.5047372e-05,6.23605757e-05,0.0905409263
9.26,58.6229783,5.97634534,-9.76366733,1.7347896e-05,6.32799426e-05,0.044111456
9.28,53.7470573,-0.123848811,-9.76393982,1.95833142e-05,6.42363223e-05,-0.000902972271
9.3,48.8713979,-6.17654617,-9.76421074,2.17472536e-05,6.52280945e-05,-0.0445023586
9.32,43.2731277,-12.0513595,-9.7644753,2.38552402e-05,6.62472855e-05,-0.0870671895
9.34,37.7055661,-17.9090716,-9.76473517,2.59231239e-05,6.72864441e-05,-0.128977951
9.36,32.1833316,-23.7641238,-9.76498992,2.79453581e-05,6.8344288e-05,-0.170234644
9.38,26.7208001,-29.6304783,-9.76523908,2.99164037e-05,6.94192711e-05,-0.210837267
9.4,21.3321598,-35.5215639,-9.76548218,3.18307382e-05,7.05095928e-05,-0.250785822
9.42,15.515351,-41.053788,-9.76570868,3.37017076e-05,7.16089821e-05,-0.290408424
9.44,9.79618879,-46.6420991,-9.76592642,3.55421228e-05,7.27116401e-05,-0.330033189
9.46,4.18864736,-52.2994366,-9.76613492,3.73454242e-05,7.38160982e-05,-0.369660118
9.48,-1.29295806,-58.0382912,-9.76633367,3.91047198e-05,7.49206317e-05,-0.40928921
9.5,-6.63392526,-63.8706443,-9.76652211,4.08127928e-05,7.60232551e-05,-0.448920466
9.52,-12.1041762,-69.1813883,-9.76668488,4.24783987e-05,7.71155802e-05,-0.488838967
9.54,-17.4148934,-74.6138976,-9.76683503,4.41090105e-05,7.81895659e-05,-0.529329796
9.56,-22.5502474,-80.1795766,-9.76697193,4.56947269e-05,7.92433143e-05,-0.570392951
9.58,-27.4935658,-85.8893313,-9.7670949,4.72249466e-05,8.0274601e-05,-0.612028433
9.6,-32.2272823,-91.7534752,-9.76720322,4.86883626e-05,8.12808588e-05,-0.654236242
9.62,-36.8010138,-96.9421146,-9.76727826,5.00856725e-05,8.22488869e-05,-0.697245937
9.64,-41.1503003,-102.306107,-9.76733678,5.14155441e-05,8.31656153e-05,-0.741287077
9.66,-45.2556141,-107.854637,-9.76737798,5.26622462e-05,8.40280777e-05,-0.786359662
9.68,-49.0961545,-113.596109,-9.767401,5.38088965e-05,8.48328492e-05,-0.832463691
9.7,-52.6497922,-119.537989,-9.76740496,5.48374426e-05,8.5576018e-05,-0.879599165
9.72,-55.7804231,-124.64706,-9.76737025,5.57339549e-05,8.62395424e-05,-0.927866635
9.74,-58.614826,-129.964329,-9.76731545,5.64822476e-05,8.68051495e-05,-0.977366652
9.76,-61.1292203,-135.494606,-9.76723973,5.70588605e-05,8.72677627e-05,-1.02809922
9.78,-63.2983236,-141.241293,-9.76714228,5.74388016e-05,8.7621697e-05,-1.08006433
9.8,-65.0953223,-147.20617,-9.76702232,5.75955264e-05,8.78606269e-05,-1.13326199
9.82,-66.2562108,-152.160417,-9.76686227,5.74916811e-05,8.79696472e-05,-1.18748423
9.84,-67.0479139,-157.319284,-9.76668048,5.70901153e-05,8.7933161e-05,-1.2425231
9.86,-67.4450296,-162.679228,-9.76647666,5.63625125e-05,8.77428475e-05,-1.29837859
9.88,-67.4209704,-168.234483,-9.76625064,5.52793666e-05,8.73897614e-05,-1.3550507
9.9,-66.9480223,-173.976831,-9.76600243,5.38100059e-05,8.68643179e-05,-1.41253944
9.92,-65.7154466,-178.49135,-9.76571983,5.18937688e-05,8.61778217e-05,-1.47005886
9.94,-64.0658208,-183.15051,-9.76541921,4.94799094e-05,8.53407581e-05,-1.52682303
9.96,-61.9807347,-187.938645,-9.76510163,4.65525113e-05,8.43416671e-05,-1.58283194
9.98,-59.4418078,-192.837691,-9.76476844,4.30966847e-05,8.31689041e-05,-1.63808559
10,-56.4308717,-197.827116,-9.76442123,3.90986173e-05,8.18106788e-05,-1.69258399
10.02,-52.6895217,-201.329813,-9.76405559,3.45090086e-05,8.03304877e-05,-1.74488679
10.04,-48.5635932,-204.856268,-9.76368419,2.9306393e-05,7.87921013e-05,-1.79355366
10.06,-44.0550721,-208.382013,-9.76330969,2.35230716e-05,7.71847208e-05,-1.83858459
10.08,-39.1675095,-211.882006,-9.76293481,1.71957928e-05,7.5498505e-05,-1.87997958
10.1,-33.9061658,-215.330866,-9.76256233,1.03654278e-05,7.3724656e-05,-1.91773863
10.12,-28.1592398,-217.044502,-9.76219414,3.06073128e-06,7.19492462e-05,-1.95045188
10.14,-22.1976535,-218.648141,-9.76183728,-4.65556132e-06,7.02608084e-05,-1.97670943
10.16,-16.0481841,-220.124798,-9.76149397,-1.26852948e-05,6.86566615e-05,-1.99651129
10.18,-9.73898411,-221.460125,-9.76116599,-2.09267258e-05,6.71362767e-05,-2.00985746
10.2,-3.29945108,-222.642652,-9.7608547,-2.92757438e-05,6.57012898e-05,-2.01674794
10.22,3.18944786,-221.967282,-9.76056204,-3.7626252e-05,6.43667354e-05,-2.01701694
10.24,9.6087316,-221.132455,-9.76028907,-4.58686091e-05,6.31505105e-05,-2.0104987
10.26,15.9263905,-220.144767,-9.76003503,-5.38936468e-05,6.20617441e-05,-1.99719319
10.28,22.1112522,-219.014092,-9.75979865,-6.15949904e-05,6.1111588e-05,-1.97710043
10.3,28.1331573,-217.753419,-9.75957817,-6.88703657e-05,6.03130901e-05,-1.95022041
10.32,33.7463156,-214.718235,-9.75936989,-7.56468391e-05,5.95947767e-05,-1.91779977
10.34,39.0246767,-211.604415,-9.7591736,-8.18830766e-05,5.88852226e-05,-1.88108513
10.36,43.9573127,-208.436177,-9.75898654,-8.75316217e-05,5.81994698e-05,-1.84007649
10.38,48.5351308,-205.238081,-9.75880594,-9.2550107e-05,5.75532403e-05,-1.79477385
10.4,52.7507747,-202.034749,-9.75862897,-9.69016512e-05,5.69628168e-05,-1.74517721
10.42,56.2671349,-197.290183,-9.75844578,-0.00010060397,5.6359195e-05,-1.6928081
10.44,59.3195611,-192.608975,-9.75826152,-0.000103705143,5.56709151e-05,-1.63918803
10.46,61.922474,-188.013707,-9.75807423,-0.000106219417,5.49106375e-05,-1.58431701
10.48,64.0908578,-183.524728,-9.75788225,-0.000108162645,5.40906196e-05,-1.52819504
10.5,65.8400646,-179.160167,-9.75768416,-0.000109552231,5.3222699e-05,-1.47082211
10.52,66.8207986,-173.51784,-9.75746578,-0.000110445769,5.22869951e-05,-1.41312752
10.54,67.341512,-168.048402,-9.75724,-0.000110912746,5.12612064e-05,-1.35604055
10.56,67.4290576,-162.762577,-9.75700654,-0.00011098854,5.01526659e-05,-1.29956119
10.58,67.1093585,-157.668521,-9.75676537,-0.000110707192,4.89680054e-05,-1.24368946
10.6,66.4073228,-152.772035,-9.75651658,-0.000110101384,4.77131971e-05,-1.18842535
10.62,65.0350724,-146.824421,-9.75624336,-0.000109216903,4.63983109e-05,-1.13407209
10.64,63.2734324,-141.093373,-9.75596433,-0.000108100176,4.50322262e-05,-1.0809329
10.66,61.1498913,-135.578781,-9.75568019,-0.000106782325,4.36181896e-05,-1.02900779
10.68,58.6904243,-130.278736,-9.7553917,-0.000105292506,4.21588598e-05,-0.978296755
10.7,55.91951,-125.189757,-9.75509966,-0.000103657953,4.06563549e-05,-0.928799797
10.72,52.677188,-119.234081,-9.75478627,-0.00010190068,3.91263772e-05,-0.880460547
10.74,49.1310486,-113.485303,-9.75447248,-0.000100040364,3.75844864e-05,-0.833222635
10.76,45.3042474,-107.936821,-9.75415919,-9.80981486e-05,3.60318855e-05,-0.787086061
10.78,41.2185426,-102.580985,-9.75384726,-9.60936485e-05,3.44693767e-05,-0.742050826
10.8,36.8943483,-97.4092636,-9.75353756,-9.40449934e-05,3.28973949e-05,-0.69811693
10.82,32.3538875,-91.5307798,-9.75321331,-9.19566735e-05,3.13276983e-05,-0.655072295
10.84,27.5888887,-85.8175769,-9.75289455,-8.9831115e-05,2.97724819e-05,-0.612704844
10.86,22.6177396,-80.2597795,-9.75258205,-8.76815396e-05,2.82323721e-05,-0.571014578
10.88,17.457837,-74.8468757,-9.75227653,-8.55202181e-05,2.67077357e-05,-0.530001497
10.9,12.1256399,-69.5678208,-9.75197865,-8.33584908e-05,2.51987004e-05,-0.4896656
10.92,6.86258846,-63.7354566,-9.75167461,-8.11906781e-05,2.37124749e-05,-0.449730748
10.94,1.4452956,-58.0097852,-9.75138108,-7.90099359e-05,2.22569829e-05,-0.409920801
10.96,-4.11112764,-52.3791273,-9.75109864,-7.68248032e-05,2.0833116e-05,-0.370235758
10.98,-9.79206464,-46.8312917,-9.75082784,-7.46433263e-05,1.94415861e-05,-0.33067562
11,-15.5833469,-41.35364,-9.75056916,-7.24730578e-05,1.80829351e-05,-0.291240386
11.02,-21.0073684,-35.4828134,-9.75031336,-7.03025459e-05,1.67623379e-05,-0.251611262
11.04,-26.519094,-29.6511344,-9.75007201,-6.8120034e-05,1.54858452e-05,-0.211469453
11.06,-32.1044458,-23.8454696,-9.74984558,-6.59321562e-05,1.42550734e-05,-0.17081496
11.08,-37.7492837,-18.0521574,-9.74963454,-6.37454163e-05,1.30714837e-05,-0.129647781
11.1,-43.4393529,-12.257061,-9.74943932,-6.15661763e-05,1.19363819e-05,-0.0879679172
11.12,-48.4657299,-6.245333,-9.7492563,-5.93797667e-05,1.08566665e-05,-0.0454060918
11.14,-53.5084304,-0.200849086,-9.74909092,-5.71721041e-05,9.84024145e-06,-0.00159302794
11.16,-58.5516351,5.89091204,-9.74894371,-5.49505134e-05,8.8896705e-06,0.0434712744
11.18,-63.5787914,12.0449779,-9.7488152,-5.27225774e-05,8.00733102e-06,0.0897868153
11.2,-68.5725384,18.2768057,-9.74870594,-5.04961305e-05,7.19540309e-06,0.137353595
11.22,-72.6212375,24.5229039,-9.74861822,-4.82568664e-05,6.46769888e-06,0.186588381
11.24,-76.5991831,30.8723721,-9.74855118,-4.59922595e-05,5.83908886e-06,0.237907943
11.26,-80.4854397,37.3402251,-9.74850554,-4.37136333e-05,5.31298393e-06,0.29131228
11.28,-84.257513,43.941655,-9.74848206,-4.14331777e-05,4.89250673e-06,0.346801392
11.3,-87.8912366,50.6918742,-9.74848154,-3.91639757e-05,4.58046389e-06,0.404375279
11.32,-90.3281472,57.2145892,-9.74851146,-3.69015502e-05,4.40377886e-06,0.464405316
11.34,-92.5797427,63.896828,-9.74856532,-3.4644726e-05,4.39011772e-06,0.527262874
11.36,-94.616603,70.7504345,-9.7486441,-3.24135891e-05,4.54280708e-06,0.592947955
11.38,-96.4069427,77.7863822,-9.7487488,-3.02301225e-05,4.86468114e-06,0.661460557
11.4,-97.9164899,85.0144535,-9.74888039,-2.81183067e-05,5.35802441e-06,0.732800682
11.42,-98.0299202,91.7093633,-9.74904921,-2.61054897e-05,6.06232289e-06,0.806927272
11.44,-97.8113783,98.5744817,-9.74924465,-2.42220561e-05,7.01638896e-06,0.883799271
11.46,-97.2232436,105.609195,-9.7494675,-2.25002035e-05,8.22049889e-06,0.963416678
11.48,-96.2256234,112.81003,-9.74971838,-2.09750567e-05,9.67412882e-06,1.04577949
11.5,-94.7763807,120.170165,-9.74999769,-1.96848279e-05,1.13758583e-05,1.13088772
11.52,-91.8387221,126.58862,-9.75031421,-1.87160288e-05,1.33439748e-05,1.21741398
11.54,-88.4216572,133.086348,-9.7506551,-1.81462604e-05,1.55926925e-05,1.3040309
11.56,-84.4935679,139.636226,-9.75101946,-1.80035516e-05,1.8113105e-05,1.39073848
11.58,-80.0233879,146.207066,-9.75140596,-1.83170144e-05,2.08953938e-05,1.47753673
11.6,-74.9809664,152.763382,-9.75181278,-1.91169291e-05,2.3928757e-05,1.56442563
11.62,-68.5964828,157.846173,-9.75224189,-2.05124654e-05,2.71277815e-05,1.64799951
11.64,-61.703237,162.772797,-9.7526805,-2.25660419e-05,3.03993954e-05,1.72485266
11.66,-54.3113007,167.490963,-9.75312491,-2.52339143e-05,3.37206407e-05,1.79498509
11.68,-46.4360958,171.949359,-9.75357124,-2.84664951e-05,3.70688287e-05,1.8583968
11.7,-38.09845,176.098382,-9.75401556,-3.22090737e-05,4.04217085e-05,1.91508778
11.72,-28.9948802,178.248177,-9.75445342,-3.64309851e-05,4.36330881e-05,1.96172328
11.74,-19.6415108,179.971366,-9.75487704,-4.10403749e-05,4.65529105e-05,1.99496856
11.76,-10.1045052,181.237768,-9.75528375,-4.58830803e-05,4.91555912e-05,2.01482359
11.78,-0.453318029,182.027893,-9.75567178,-5.08016555e-05,5.14185186e-05,2.0212884
11.8,9.24055893,182.333441,-9.75604039,-5.56382747e-05,5.33223686e-05,2.01436297
11.82,18.742261,180.471857,-9.75638846,-6.02443735e-05,5.48886903e-05,1.99499344
11.84,28.0164905,178.157802,-9.75671608,-6.44924032e-05,5.61443174e-05,1.96412596
11.86,37.0050317,175.421739,-9.75702588,-6.82624578e-05,5.70830221e-05,1.92176051
11.88,45.6542877,172.30249,-9.75732116,-7.14427497e-05,5.77019742e-05,1.86789711
11.9,53.9160741,168.846358,-9.75760576,-7.3931462e-05,5.80017044e-05,1.80253575
11.92,61.1343294,163.570657,-9.75788649,-7.57215204e-05,5.81130668e-05,1.72957257
11.94,67.8090886,158.101478,-9.7581629,-7.68711324e-05,5.81723323e-05,1.65290372
11.96,73.9430985,152.488049,-9.75843848,-7.73871128e-05,5.81912795e-05,1.57252919
11.98,79.5431634,146.777936,-9.75871637,-7.72791645e-05,5.81824412e-05,1.48844899
12,84.6198045,141.0167,-9.75899933,-7.65599755e-05,5.81589528e-05,1.40066312
12.02,88.2579523,133.996156,-9.75929716,-7.53303606e-05,5.81638483e-05,1.31180154
12.04,91.3540056,127.046586,-9.75960196,-7.37173292e-05,5.8240756e-05,1.22449426
12.06,93.9466811,120.191941,-9.75991453,-7.17720992e-05,5.84033356e-05,1.13874125
12.08,96.0739857,113.451759,-9.76023528,-6.95419727e-05,5.86642696e-05,1.05454253
12.1,97.7729784,106.841596,-9.76056424,-6.70705415e-05,5.90352641e-05,0.971898091
12.12,97.9999459,99.460003,-9.76091066,-6.44256625e-05,5.94929032e-05,0.89151076
12.14,97.8409567,92.2634775,-9.76126203,-6.16748978e-05,6.00126971e-05,0.814083361
12.16,97.3362107,85.2508385,-9.76161759,-5.88556696e-05,6.0603134e-05,0.739615894
12.18,96.5233314,78.4184416,-9.76197648,-5.6001532e-05,6.12715825e-05,0.668108359
12.2,95.4374242,71.7606191,-9.76233773,-5.31424279e-05,6.2024361e-05,0.599560756
12.22,93.0227366,64.6957093,-9.76270818,-5.02953056e-05,6.28335345e-05,0.533785199
12.24,90.386153,57.8121046,-9.76307613,-4.74729274e-05,6.3670434e-05,0.470593802
12.26,87.5578725,51.0969932,-9.76344065,-4.46947221e-05,6.45389118e-05,0.409986566
12.28,84.5658728,44.5369559,-9.76380083,-4.1977997e-05,6.54420445e-05,0.35196349
12.3,81.4360386,38.1182154,-9.76415577,-3.93380735e-05,6.63821945e-05,0.296524575
12.32,77.2006006,31.5698526,-9.76450824,-3.67667664e-05,6.73425773e-05,0.24325837
12.34,72.8707025,25.1448372,-9.764851,-3.42534328e-05,6.83061686e-05,0.191753426
12.36,68.4674592,18.8275107,-9.76518337,-3.18075835e-05,6.92740904e-05,0.142009742
12.38,64.0106584,12.6024589,-9.7655047,-2.94378149e-05,7.02469885e-05,0.0940273183
12.4,59.5188589,6.45462998,-9.76581436,-2.71518521e-05,7.12250701e-05,0.0478061552
12.42,54.1864475,0.401829644,-9.76610987,-2.493438e-05,7.21997363e-05,0.00294412845
12.44,48.8529207,-5.60220943,-9.7663902,-2.27692657e-05,7.3162396e-05,-0.0409608861
12.46,43.5340546,-11.572514,-9.76665485,-2.06621724e-05,7.41127163e-05,-0.0839088884
12.48,38.2451008,-17.52364,-9.76690335,-1.86184922e-05,7.5050053e-05,-0.125899878
12.5,33.0008505,-23.4696101,-9.76713521,-1.66433489e-05,7.59734687e-05,-0.166933856
12.52,27.2046593,-29.1292681,-9.76734243,-1.47217807e-05,7.68772148e-05,-0.207359591
12.54,21.4794507,-34.8152695,-9.76753049,-1.28390225e-05,7.77556186e-05,-0.24752585
12.56,15.8391285,-40.5411751,-9.76769893,-1.10003791e-05,7.86074522e-05,-0.287432634
12.58,10.2977079,-46.3200842,-9.76784729,-9.21126561e-06,7.94312312e-05,-0.327079943
12.6,4.86936303,-52.1645806,-9.76797507,-7.47719969e-06,8.02252177e-05,-0.366467777
12.62,-0.812249567,-57.5535124,-9.76806927,-5.78651823e-06,8.09823712e-05,-0.405898584
12.64,-6.36004254,-63.038048,-9.76814127,-4.12849144e-06,8.16956961e-05,-0.445674811
12.66,-11.7592239,-68.6302567,-9.76819051,-2.51043686e-06,8.23631258e-05,-0.48579646
12.68,-16.9943602,-74.34175,-9.76821641,-9.4010814e-07,8.29823104e-05,-0.526263528
12.7,-22.0493289,-80.1836051,-9.76821832,5.74308699e-07,8.35506092e-05,-0.567076018
12.72,-27.0624844,-85.4135781,-9.76817949,2.03859782e-06,8.40566424e-05,-0.608490991
12.74,-31.8789397,-90.7985025,-9.76811593,3.45690805e-06,8.44889738e-05,-0.650765513
12.76,-36.4808731,-96.3486466,-9.7680269,4.81767691e-06,8.48443894e-05,-0.693899584
12.78,-40.8493559,-102.073652,-9.76791161,6.10853152e-06,8.5119308e-05,-0.737893203
12.8,-44.9642975,-107.982407,-9.76776923,7.3162807e-06,8.53097647e-05,-0.78274637
12.82,-48.7611667,-113.125176,-9.76758123,8.43596203e-06,8.53987271e-05,-0.828628096
12.84,-52.2924539,-118.465831,-9.76736642,9.46047556e-06,8.53689536e-05,-0.875707393
12.86,-55.5360717,-124.011388,-9.76712394,1.03719132e-05,8.52155285e-05,-0.92398426
12.88,-58.4684843,-129.767755,-9.76685293,1.11511606e-05,8.49330671e-05,-0.973458698
12.9,-61.0646618,-135.739544,-9.76655251,1.1777881e-05,8.45156991e-05,-1.02413071
12.92,-63.1052531,-140.778434,-9.76620497,1.22283028e-05,8.39448769e-05,-1.0759504
12.94,-64.8060892,-146.029159,-9.76582992,1.24774748e-05,8.32017411e-05,-1.1288679
12.96,-66.1417966,-151.492216,-9.76542675,1.25014166e-05,8.2279224e-05,-1.1828832
12.98,-67.0855896,-157.166208,-9.76499491,1.22748801e-05,8.11697797e-05,-1.23799631
13,-67.6092829,-163.047609,-9.764534,1.17713506e-05,7.98653814e-05,-1.29420723
13.02,-67.4103103,-167.797209,-9.76403038,1.09423644e-05,7.83631182e-05,-1.3510022
13.04,-66.8082284,-172.724297,-9.76350247,9.74417677e-06,7.66600691e-05,-1.40786749
13.06,-65.780223,-177.818466,-9.76295068,8.15632231e-06,7.47476843e-05,-1.46480309
13.08,-64.3028941,-183.066814,-9.76237562,6.15825734e-06,7.26172397e-05,-1.52180901
13.1,-62.3523921,-188.453785,-9.76177817,3.7293996e-06,7.02598714e-05,-1.57888524
13.12,-59.6360065,-192.465151,-9.7611518,8.12747381e-07,6.77187446e-05,-1.63483605
13.14,-56.5073775,-196.556462,-9.76051203,-2.62932606e-06,6.50383046e-05,-1.68846571
13.16,-52.9584746,-200.70567,-9.75986093,-6.58615726e-06,6.2211967e-05,-1.73977423
13.18,-48.9822688,-204.889102,-9.75920081,-1.10442572e-05,5.92337828e-05,-1.78876159
13.2,-44.5729276,-209.081569,-9.75853414,-1.59874321e-05,5.60984945e-05,-1.83542781
13.22,-39.5482293,-211.634351,-9.75786192,-2.14243346e-05,5.2898112e-05,-1.87820647
13.24,-34.2200852,-214.128425,-9.75719489,-2.73301093e-05,4.97279133e-05,-1.91553118
13.26,-28.6058851,-216.541127,-9.7565358,-3.36328237e-05,4.65892604e-05,-1.94740195
13.28,-22.7248036,-218.851142,-9.75588721,-4.02565227e-05,4.34850662e-05,-1.97381876
13.3,-16.5977908,-221.038817,-9.75525143,-4.71220742e-05,4.04197732e-05,-1.99478162
13.32,-10.2248354,-221.396569,-9.7546324,-5.4149871e-05,3.74554204e-05,-2.00948994
13.34,-3.79630425,-221.599566,-9.75403454,-6.12417131e-05,3.46574058e-05,-2.01714312
13.36,2.65432445,-221.643802,-9.75345845,-6.82885154e-05,3.20375589e-05,-2.01774117
13.38,9.09342226,-221.528825,-9.75290418,-7.5182058e-05,2.96092261e-05,-2.01128408
13.4,15.4874246,-221.257744,-9.75237121,-8.18163607e-05,2.73871167e-05,-1.99777185
13.42,21.6516348,-219.152958,-9.75185959,-8.80986151e-05,2.533305e-05,-1.97795571
13.44,27.5791064,-216.922449,-9.7513698,-9.3956103e-05,2.34088442e-05,-1.95258689
13.46,33.2480416,-214.585295,-9.7508996,-9.93190709e-05,2.16305662e-05,-1.92166539
13.48,38.6383913,-212.162348,-9.75044644,-0.000104123143,2.0014744e-05,-1.88519121
13.5,43.7318752,-209.675934,-9.75000758,-0.000108310021,1.85782244e-05,-1.84316435
13.52,48.2195205,-205.541095,-9.74957647,-0.000111869821,1.72404009e-05,-1.79714686
13.54,52.2780099,-201.410114,-9.74915628,-0.000114825877,1.59174704e-05,-1.7487008
13.56,55.912287,-197.308315,-9.7487445,-0.000117177005,1.4621357e-05,-1.69782617
13.58,59.1285456,-193.259596,-9.74833879,-0.000118925122,1.33635795e-05,-1.64452298
13.6,61.9340363,-189.286301,-9.74793704,-0.000120075269,1.21552274e-05,-1.58879121
13.62,63.975267,-183.928066,-9.74752741,-0.00012068144,1.09528609e-05,-1.53185016
13.64,65.5427207,-178.704769,-9.74712027,-0.000120815329,9.70977368e-06,-1.47491911
13.66,66.6598654,-173.632411,-9.74671471,-0.000120510359,8.43136018e-06,-1.41799805
13.68,67.349771,-168.724345,-9.74631008,-0.00011979924,7.12242953e-06,-1.36108699
13.7,67.634969,-163.991421,-9.74590593,-0.000118713931,5.78724927e-06,-1.30418593
13.72,67.1934666,-158.118852,-9.74548695,-0.00011730979,4.42325938e-06,-1.24783023
13.74,66.3291766,-152.452402,-9.74507017,-0.000115645319,3.02622247e-06,-1.19255525
13.76,65.0703008,-146.995967,-9.74465601,-0.000113755005,1.59715087e-06,-1.13836098
13.78,63.4436591,-141.751286,-9.74424497,-0.000111671228,1.36618244e-07,-1.08524743
13.8,61.474672,-136.718174,-9.74383769,-0.000109424314,-1.3551931e-06,-1.0332146
13.82,58.9427455,-130.74579,-9.74341691,-0.000107045391,-2.86603274e-06,-0.982324005
13.84,56.0715352,-124.98935,-9.74300319,-0.000104563639,-4.38396026e-06,-0.932637164
13.86,52.8862374,-119.444456,-9.74259741,-0.000102003527,-5.90974971e-06,-0.884154078
13.88,49.4105477,-114.105385,-9.74220045,-9.93876765e-05,-7.44444627e-06,-0.836874746
13.9,45.6667062,-108.965285,-9.74181316,-9.67369181e-05,-8.98933369e-06,-0.79079917
13.92,41.5955879,-103.053617,-9.74141828,-9.4061075e-05,-1.05326869e-05,-0.745763183
13.94,37.2681581,-97.3272729,-9.74103646,-9.13677783e-05,-1.20623712e-05,-0.701602621
13.96,32.7046751,-91.777468,-9.74066855,-8.86723369e-05,-1.35793505e-05,-0.658317484
13.98,27.9242201,-86.3946536,-9.74031534,-8.5988846e-05,-1.50847501e-05,-0.615907771
14,22.9447521,-81.168642,-9.73997757,-8.33302244e-05,-1.65798371e-05,-0.574373484
14.02,17.9132787,-75.3253327,-9.73963991,-8.06935787e-05,-1.80570373e-05,-0.533459567
14.04,12.6991844,-69.6145102,-9.73932037,-7.8074764e-05,-1.95080657e-05,-0.492910965
14.06,7.31870172,-64.025157,-9.73901962,-7.54834515e-05,-2.09333034e-05,-0.45272768
14.08,1.78735566,-58.5457178,-9.73873825,-7.29286391e-05,-2.23332336e-05,-0.41290971
14.1,-3.87998738,-53.1641774,-9.73847681,-7.04186626e-05,-2.37084315e-05,-0.373457056
14.12,-9.30464551,-47.3213766,-9.73822369,-6.7943818e-05,-2.50540915e-05,-0.334068744
14.14,-14.8447221,-41.5465807,-9.73799225,-6.54941094e-05,-2.63645605e-05,-0.2944438
14.16,-20.486015,-35.8272571,-9.73778301,-6.30767472e-05,-2.76392667e-05,-0.254582224
14.18,-26.2145004,-30.1503583,-9.73759642,-6.06986728e-05,-2.88777164e-05,-0.214484015
14.2,-32.0162866,-24.5023768,-9.73743294,-5.8366553e-05,-3.00794884e-05,-0.174149174
14.22,-37.2766049,-18.5617745,-9.73728598,-5.60670865e-05,-3.12394162e-05,-0.133230771
14.24,-42.5841732,-12.6185746,-9.73716298,-5.37875913e-05,-3.23513714e-05,-0.0913818771
14.26,-47.9242722,-6.65880374,-9.73706441,-5.15355318e-05,-3.34135996e-05,-0.0486024918
14.28,-53.2817461,-0.667954293,-9.73699076,-4.93184714e-05,-3.44244222e-05,-0.00489261521
14.3,-58.6409401,5.36895399,-9.73694251,-4.71440627e-05,-3.5382236e-05,0.0397477526
14.32,-63.1694148,11.5081451,-9.73691878,-4.49982278e-05,-3.62769943e-05,0.0857190421
14.34,-67.6660335,17.7220653,-9.73692056,-4.2868611e-05,-3.70975688e-05,0.133421684
14.36,-72.1124309,24.0257518,-9.73694847,-4.07659506e-05,-3.78408588e-05,0.182855677
14.38,-76.489043,30.4346171,-9.73700317,-3.87015787e-05,-3.85038559e-05,0.234021023
14.4,-80.7750101,36.9643339,-9.73708532,-3.66874304e-05,-3.90836481e-05,0.286917721
14.42,-83.9641695,43.3731259,-9.73719954,-3.47149907e-05,-3.95590345e-05,0.341959131
14.44,-87.0196559,49.9212799,-9.73734074,-3.27789249e-05,-3.99077428e-05,0.399558612
14.46,-89.9158988,56.6226991,-9.7375098,-3.08974329e-05,-4.01254211e-05,0.459716166
14.48,-92.6252629,63.4909685,-9.73770762,-2.9090144e-05,-4.02078483e-05,0.522431791
14.5,-95.1179209,70.539112,-9.73793515,-2.73781771e-05,-4.01509483e-05,0.587705488
14.52,-96.2886624,77.1912187,-9.73820094,-2.57746048e-05,-3.99177112e-05,0.65574112
14.54,-97.1916989,84.0176932,-9.73849506,-2.42964522e-05,-3.94706819e-05,0.72674255
14.56,-97.7922165,91.0246814,-9.73881846,-2.29737601e-05,-3.88053806e-05,0.800709776
14.58,-98.0528768,98.216381,-9.73917206,-2.18391217e-05,-3.79175484e-05,0.8776428
14.6,-97.9337526,105.594606,-9.73955663,-2.09278041e-05,-3.68031887e-05,0.957541621
14.62,-96.3454876,112.216259,-9.73998125,-2.03019191e-05,-3.54237453e-05,1.0397527
14.64,-94.3341501,118.971556,-9.74043294,-2.00212867e-05,-3.37425143e-05,1.1236225
14.66,-91.8624119,125.845945,-9.74091174,-2.01214781e-05,-3.17587771e-05,1.20915102
14.68,-88.8918845,132.82093,-9.74141734,-2.06403396e-05,-2.94722417e-05,1.29633825
14.7,-85.3833437,139.873634,-9.74194904,-2.16180641e-05,-2.68831278e-05,1.38518421
14.72,-80.4302149,145.686378,-9.74251115,-2.31670329e-05,-2.40186125e-05,1.47313691
14.74,-74.9542123,151.456956,-9.74308966,-2.53679224e-05,-2.09123553e-05,1.55764437
14.76,-68.9431697,157.140694,-9.74368195,-2.8212634e-05,-1.75751482e-05,1.63870661
14.78,-62.3884567,162.690704,-9.74428498,-3.16898503e-05,-1.40183677e-05,1.71632361
14.8,-55.2853344,168.058189,-9.74489534,-3.57852468e-05,-1.02540091e-05,1.79049538
14.82,-47.1164819,171.624682,-9.7455096,-4.05375147e-05,-6.42158362e-06,1.85731164
14.84,-38.5497054,174.863956,-9.74611638,-4.59148704e-05,-2.669257e-06,1.91286212
14.86,-29.6311545,177.72868,-9.74671179,-5.17888164e-05,9.77590728e-07,1.95714682
14.88,-20.4125062,180.17864,-9.7472924,-5.80242207e-05,4.49385434e-06,1.99016573
14.9,-10.950222,182.18163,-9.74785542,-6.44815275e-05,7.85495607e-06,2.01191885
14.92,-1.26039832,182.021734,-9.74839634,-7.10179001e-05,1.09916691e-05,2.02128919
14.94,8.40440413,181.376933,-9.74891169,-7.74697266e-05,1.38343345e-05,2.01715971
14.96,17.9720613,180.253254,-9.74940199,-8.36667327e-05,1.63595899e-05,1.99953043
14.98,27.3721898,178.668065,-9.74986877,-8.94443276e-05,1.85460509e-05,1.96840135
15,36.5374287,176.649634,-9.75031452,-9.46465419e-05,2.0374588e-05,1.92377246
15.02,44.9659549,172.617649,-9.75074253,-9.91810004e-05,2.19498775e-05,1.86888747
15.04,52.9422093,168.266081,-9.75115337,-0.000103020863,2.33846452e-05,1.8069901
15.06,60.4430554,163.644124,-9.75155093,-0.000106122038,2.46749347e-05,1.73808034
15.08,67.450832,158.803044,-9.75193911,-0.000108447982,2.58184509e-05,1.66215819
15.1,73.9533351,153.79543,-9.75232168,-0.000109970157,2.68145074e-05,1.57922365
15.12,79.1258554,147.29403,-9.75270749,-0.000110767113,2.77413929e-05,1.4927435
15.14,83.724863,140.76902,-9.75309134,-0.000110965627,2.86830561e-05,1.40618451
15.16,87.7794006,134.256915,-9.75347518,-0.00011061417,2.96485359e-05,1.31954666
15.18,91.3195987,127.789987,-9.75386044,-0.000109759096,3.06468902e-05,1.23282997
15.2,94.3763041,121.396481,-9.75424814,-0.00010844469,3.16871037e-05,1.14603443
15.22,95.9446119,114.04448,-9.75464781,-0.000106765257,3.27594952e-05,1.06055396
15.24,97.0553788,106.848367,-9.75504787,-0.000104822642,3.38554327e-05,0.977782454
15.26,97.7508041,99.8158168,-9.75544798,-0.000102667212,3.49848248e-05,0.89771992
15.28,98.0708942,92.9510737,-9.75584757,-0.000100344615,3.61568497e-05,0.820366358
15.3,98.0534257,86.2554472,-9.7562459,-9.78960591e-05,3.7379956e-05,0.745721767
15.32,96.6342582,79.0142198,-9.75665101,-9.53607381e-05,3.86242799e-05,0.67385448
15.34,94.9285559,71.9656314,-9.75705019,-9.27736071e-05,3.98593728e-05,0.604832831
15.36,92.9709682,65.1002587,-9.75744246,-9.01638866e-05,4.109172e-05,0.538656819
15.38,90.7936389,58.4074248,-9.75782684,-8.75576844e-05,4.23271087e-05,0.475326445
15.4,88.4263259,51.8755269,-9.75820237,-8.49782035e-05,4.35706661e-05,0.414841708
15.42,84.854067,45.1065925,-9.75857382,-8.24270826e-05,4.48023014e-05,0.35683716
15.44,81.1391015,38.4886509,-9.7589319,-7.99022489e-05,4.6001261e-05,0.300947352
15.46,77.3059071,32.0065634,-9.75927581,-7.74180967e-05,4.71708264e-05,0.247172284
15.48,73.3772574,25.6451851,-9.75960477,-7.49875141e-05,4.83137993e-05,0.195511955
15.5,69.3743356,19.3895264,-9.75991807,-7.26219732e-05,4.94325357e-05,0.145966367
15.52,64.4168586,13.1403612,-9.76021577,-7.03088841e-05,5.05171335e-05,0.0981178491
15.54,59.4227885,6.97163543,-9.76049445,-6.80338975e-05,5.15572408e-05,0.0515487332
15.56,54.4096607,0.867860198,-9.76075355,-6.58043748e-05,5.25539786e-05,0.00625901911
15.58,49.3941745,-5.18602963,-9.76099254,-6.36270827e-05,5.35081558e-05,-0.0377512932
15.6,44.392269,-11.2045974,-9.76121089,-6.15082167e-05,5.44202904e-05,-0.0804822037
15.62,38.7163824,-17.0131902,-9.76140329,-5.94324554e-05,5.5285044e-05,-0.122304938
15.64,33.0832453,-22.8173482,-9.76157299,-5.73840283e-05,5.6096782e-05,-0.163590723
15.66,27.5071663,-28.6312615,-9.76171955,-5.53679634e-05,5.68551958e-05,-0.204339558
15.68,22.0023182,-34.4686441,-9.7618425,-5.33891827e-05,5.75597494e-05,-0.244551444
15.7,16.5827893,-40.3426807,-9.76194138,-5.14525e-05,5.82096871e-05,-0.284226379
15.72,10.7854046,-45.8294556,-9.76200564,-4.95442364e-05,5.87995492e-05,-0.323684746
15.74,5.09616873,-51.3839878,-9.76204493,-4.76511049e-05,5.93236438e-05,-0.363246923
15.76,-0.470790676,-57.0189679,-9.76205876,-4.57785975e-05,5.9780549e-05,-0.402912912
15.78,-5.90091639,-62.7466396,-9.76204661,-4.39324324e-05,6.01686304e-05,-0.442682712
15.8,-11.1791753,-68.5787353,-9.76200789,-4.21185483e-05,6.04860411e-05,-0.482556324
15.82,-16.5369992,-73.8630083,-9.76192777,-4.03273017e-05,6.07238406e-05,-0.522811484
15.84,-21.724759,-79.2790671,-9.76182123,-3.85501475e-05,6.08728587e-05,-0.563725931
15.86,-26.7261103,-84.8380211,-9.76168761,-3.67952493e-05,6.0930566e-05,-0.605299664
15.88,-31.5237874,-90.5504536,-9.76152622,-3.50713285e-05,6.08941911e-05,-0.647532683
15.9,-36.0995503,-96.4263201,-9.76133629,-3.3387666e-05,6.07607153e-05,-0.690424989
15.92,-40.4687458,-101.600872,-9.7611003,-3.17422593e-05,6.05156821e-05,-0.734191935
15.94,-44.6019157,-106.958079,-9.76083693,-3.01348602e-05,6.01443913e-05,-0.779048874
15.96,-48.4788015,-112.506595,-9.76054534,-2.85784989e-05,5.96430605e-05,-0.824995806
15.98,-52.0778119,-118.254207,-9.76022467,-2.7087148e-05,5.90076245e-05,-0.872032731
16,-55.37597,-124.207678,-9.75987403,-2.56757374e-05,5.82337302e-05,-0.92015965
16.02,-58.2109775,-129.300409,-9.75947551,-2.43567338e-05,5.73029223e-05,-0.96944119
16.04,-60.7371865,-134.603823,-9.75904948,-2.31443726e-05,5.61965862e-05,-1.01994198
16.06,-62.9302308,-140.121643,-9.75859514,-2.20578737e-05,5.49097097e-05,-1.07166201
16.08,-64.7642453,-145.856051,-9.75811172,-2.11176875e-05,5.34370151e-05,-1.1246013
16.1,-66.2118461,-151.807462,-9.75759852,-2.03455129e-05,5.17729673e-05,-1.17875983
16.12,-66.9948809,-156.714911,-9.75704027,-1.97767918e-05,4.99065187e-05,-1.23385181
16.14,-67.3977829,-161.821333,-9.75645692,-1.94458298e-05,4.78269224e-05,-1.28959146
16.16,-67.3955299,-167.121332,-9.75584832,-1.93741731e-05,4.55288424e-05,-1.34597876
16.18,-66.962052,-172.607176,-9.75521449,-1.9584171e-05,4.30068781e-05,-1.40301373
16.2,-66.0703125,-178.268585,-9.75455564,-2.00989694e-05,4.02555967e-05,-1.46069636
16.22,-64.4111578,-182.661039,-9.75386241,-2.09745242e-05,3.72988546e-05,-1.51812249
16.24,-62.3329335,-187.181615,-9.75315249,-2.22555691e-05,3.41620451e-05,-1.57438799
16.26,-59.8197124,-191.812601,-9.75242724,-2.39480649e-05,3.084232e-05,-1.62949285
16.28,-56.8558751,-196.534025,-9.75168824,-2.60567305e-05,2.73372388e-05,-1.68343708
16.3,-53.4263045,-201.323635,-9.75093739,-2.85850697e-05,2.36448079e-05,-1.73622066
16.32,-49.2913609,-204.581438,-9.75017312,-3.15712797e-05,1.98470273e-05,-1.78633376
16.34,-44.7899057,-207.839067,-9.74940907,-3.50262284e-05,1.60292088e-05,-1.83226652
16.36,-39.9283515,-211.07187,-9.748648,-3.89085308e-05,1.21953638e-05,-1.87401894
16.38,-34.7148237,-214.255142,-9.74789267,-4.31731742e-05,8.35038768e-06,-1.91159102
16.4,-29.1592684,-217.3644,-9.74714584,-4.77719855e-05,4.50002506e-06,-1.94498277
16.42,-23.1810391,-218.705545,-9.74641138,-5.26661375e-05,7.38261591e-07,-1.97291513
16.44,-17.0305282,-219.919865,-9.74569686,-5.77891218e-05,-2.83734595e-06,-1.99410907
16.46,-10.7373798,-220.993629,-9.74500411,-6.3047392e-05,-6.21446727e-06,-2.00856457
16.48,-4.33231999,-221.916146,-9.74433449,-6.83460283e-05,-9.38006633e-06,-2.01628164
16.5,2.15301139,-222.679945,-9.74368885,-7.35899296e-05,-1.23205561e-05,-2.01726027
16.52,8.60612246,-221.585189,-9.74306982,-7.86854682e-05,-1.50292783e-05,-2.01160876
16.54,14.9393294,-220.336064,-9.74247912,-8.35432952e-05,-1.74989922e-05,-1.99943538
16.56,21.1226987,-218.943221,-9.7419155,-8.80778126e-05,-1.97148984e-05,-1.98074013
16.58,27.1274771,-217.420273,-9.74137727,-9.22075872e-05,-2.16622932e-05,-1.95552301
16.6,32.9262302,-215.783563,-9.7408623,-9.58563388e-05,-2.33267094e-05,-1.92378403
16.62,38.2521685,-212.404387,-9.74036697,-9.89824008e-05,-2.47865461e-05,-1.88690876
16.64,43.2106418,-208.969154,-9.73989253,-0.000101574753,-2.61230181e-05,-1.84628281
16.66,47.7954051,-205.503105,-9.73943622,-0.000103610631,-2.73265439e-05,-1.80190616
16.68,52.0019513,-202.03126,-9.73899529,-0.000105071565,-2.83881113e-05,-1.75377882
16.7,55.8273745,-198.578168,-9.73856711,-0.000105943572,-2.92992968e-05,-1.7019008
16.72,58.9271215,-193.628839,-9.7381419,-0.000106265148,-3.01294516e-05,-1.64772883
16.74,61.5558762,-188.765334,-9.73772661,-0.000106098225,-3.09511893e-05,-1.59271966
16.76,63.731201,-184.008561,-9.73731958,-0.000105467767,-3.1761797e-05,-1.5368733
16.78,65.4709309,-179.377002,-9.73691943,-0.000104399115,-3.25590235e-05,-1.48018974
16.8,66.7929884,-174.886761,-9.73652503,-0.000102917953,-3.3341036e-05,-1.42266899
16.82,67.353411,-169.160144,-9.73612234,-0.000101084185,-3.41295529e-05,-1.36512161
16.84,67.4628428,-163.618358,-9.73572548,-9.89646595e-05,-3.49480606e-05,-1.30835815
16.86,67.1488813,-158.270047,-9.7353344,-9.65942562e-05,-3.57978559e-05,-1.25237863
16.88,66.4380288,-153.121383,-9.73494922,-9.40059545e-05,-3.66804547e-05,-1.19718304
16.9,65.3556285,-148.17629,-9.73457023,-9.12308767e-05,-3.75975531e-05,-1.14277139
16.92,63.630918,-142.213651,-9.73418066,-8.83088762e-05,-3.85435645e-05,-1.08936731
16.94,61.5310741,-136.469071,-9.73379944,-8.52788444e-05,-3.951329e-05,-1.03719446
16.96,59.0830395,-130.941046,-9.73342733,-8.21675263e-05,-4.05091941e-05,-0.986252846
16.98,56.3122267,-125.626421,-9.73306513,-7.89996369e-05,-4.15338195e-05,-0.936542459
17,53.2425459,-120.520604,-9.73271366,-7.57979371e-05,-4.25897644e-05,-0.888063302
17.02,49.7412938,-114.576152,-9.73235518,-7.25780335e-05,-4.36658503e-05,-0.840721941
17.04,45.9502247,-108.833324,-9.73201001,-6.93533045e-05,-4.47505819e-05,-0.794424943
17.06,41.8916459,-103.284791,-9.73167902,-6.614065e-05,-4.58461407e-05,-0.749172309
17.08,37.5865237,-97.9222758,-9.73136309,-6.29555475e-05,-4.69547348e-05,-0.704964039
17.1,33.0545379,-92.7366988,-9.731063,-5.98121056e-05,-4.80785872e-05,-0.661800132
17.12,28.3527036,-86.8701965,-9.73076204,-5.67102718e-05,-4.92092437e-05,-0.619453843
17.14,23.4386983,-81.1600215,-9.7304789,-5.36485857e-05,-5.03376796e-05,-0.577698424
17.16,18.3302262,-75.5959326,-9.73021431,-5.0637419e-05,-5.14652828e-05,-0.536533875
17.18,13.0440803,-70.1670897,-9.72996894,-4.7686321e-05,-5.25934566e-05,-0.495960197
17.2,7.59619408,-64.8621488,-9.72974343,-4.48040415e-05,-5.37236119e-05,-0.45597739
17.22,2.26710704,-59.030064,-9.72952398,-4.19822879e-05,-5.48506088e-05,-0.416301888
17.24,-3.20497358,-53.2937951,-9.72932538,-3.92123885e-05,-5.59686636e-05,-0.376650127
17.26,-8.80528141,-47.6414125,-9.72914818,-3.6501658e-05,-5.7078238e-05,-0.337022106
17.28,-14.5194559,-42.0604774,-9.7289929,-3.38570379e-05,-5.81798093e-05,-0.297417825
17.3,-20.3334963,-36.5381027,-9.72886001,-3.12850989e-05,-5.9273865e-05,-0.257837285
17.32,-25.7299447,-30.6508501,-9.72874021,-2.87734709e-05,-6.03563221e-05,-0.217954025
17.34,-31.2027028,-24.7908462,-9.72864284,-2.63103427e-05,-6.14224068e-05,-0.177441583
17.36,-36.73761,-18.9447134,-9.72856838,-2.39028489e-05,-6.24715907e-05,-0.136299962
17.38,-42.32034,-13.0985416,-9.72851728,-2.15581241e-05,-6.35033614e-05,-0.0945291589
17.4,-47.9363469,-7.23794197,-9.72849,-1.92832978e-05,-6.45172171e-05,-0.0521291756
17.42,-52.8399345,-1.19264367,-9.7284827,-1.70646122e-05,-6.55063932e-05,-0.00872146742
17.44,-57.7466261,4.89759425,-9.72849851,-1.48899146e-05,-6.64633565e-05,0.0360725096
17.46,-62.6399937,11.0474834,-9.72853794,-1.27690651e-05,-6.73864648e-05,0.0822527556
17.48,-67.5027474,17.2722173,-9.72860157,-1.07123695e-05,-6.827408e-05,0.12981927
17.5,-72.3166548,23.5873861,-9.72868997,-8.73058545e-06,-6.91245611e-05,0.178772054
17.52,-76.1406606,29.8794169,-9.72880505,-6.81303334e-06,-6.99228888e-05,0.229531172
17.54,-79.8768689,36.2858261,-9.72894366,-4.95204195e-06,-7.06531869e-05,0.282516689
17.56,-83.5031262,42.8214673,-9.72910658,-3.16407501e-06,-7.1312502e-05,0.337728605
17.58,-86.9955718,49.5012586,-9.72929459,-1.46676912e-06,-7.1897843e-05,0.39516692
17.6,-90.3285187,56.3400032,-9.72950855,1.21020177e-07,-7.24061696e-05,0.454831634
17.62,-92.4265789,62.9052136,-9.72975517,1.59546238e-06,-7.28076078e-05,0.517061825
17.64,-94.3167492,69.6361468,-9.73002599,2.94833076e-06,-7.30715116e-05,0.582196572
17.66,-95.9680026,76.5433926,-9.730322,4.15156773e-06,-7.31935551e-05,0.650235874
17.68,-97.3468588,83.6363944,-9.73064418,5.17480367e-06,-7.31692886e-05,0.721179731
17.7,-98.4172727,90.9230955,-9.73099348,5.98524854e-06,-7.29941269e-05,0.795028144
17.72,-98.0662208,97.616323,-9.73137888,6.54074091e-06,-7.26253439e-05,0.871600018
17.74,-97.3565965,104.473385,-9.73178827,6.79706053e-06,-7.2020264e-05,0.950714258
17.76,-96.2502001,111.49019,-9.73222225,6.71425756e-06,-7.11741323e-05,1.03237086
17.78,-94.7067923,118.659423,-9.73268123,6.24937628e-06,-7.00820165e-05,1.11656984
17.8,-92.6841707,125.970057,-9.73316534,5.35635744e-06,-6.87388217e-05,1.20331118
17.82,-89.1759306,132.25759,-9.73368121,3.9341216e-06,-6.71294732e-05,1.29093985
17.84,-85.1702235,138.594823,-9.73421496,1.89888391e-06,-6.52415753e-05,1.37780081
17.86,-80.6395478,144.949302,-9.73476522,-7.71592225e-07,-6.30739871e-05,1.46389408
17.88,-75.5577641,151.284749,-9.73533014,-4.09917103e-06,-6.06256917e-05,1.54921964
17.9,-69.900492,157.560959,-9.7359074,-8.10532322e-06,-5.78958769e-05,1.63377749
17.92,-62.9637123,162.267329,-9.73649648,-1.28828914e-05,-5.49768317e-05,1.71389876
17.94,-55.5383165,166.767795,-9.73708438,-1.84615626e-05,-5.19675349e-05,1.78591455
17.96,-47.6447109,171.00929,-9.73766713,-2.47612992e-05,-4.88780507e-05,1.84982485
17.98,-39.3090674,174.9414,-9.73824076,-3.16943571e-05,-4.57193356e-05,1.90562968
18,-30.5631807,178.517213,-9.73880146,-3.91664315e-05,-4.25032545e-05,1.95332903
18.02,-21.1948077,180.030202,-9.73934386,-4.7091888e-05,-3.93514091e-05,1.99007749
18.04,-11.6501214,181.08827,-9.73986113,-5.53249425e-05,-3.63907987e-05,2.01302966
18.06,-2.00008512,181.670809,-9.74035146,-6.3674057e-05,-3.36426978e-05,2.02218553
18.08,7.68239797,181.76871,-9.74081406,-7.1946796e-05,-3.11290519e-05,2.01754511
18.1,17.323846,181.384593,-9.74124919,-7.99532746e-05,-2.88722011e-05,1.9991084
18.12,26.6068912,178.859744,-9.74165692,-8.75280029e-05,-2.68241791e-05,1.96860815
18.14,35.5880593,175.911979,-9.74203772,-9.45467187e-05,-2.49332961e-05,1.92777711
18.16,44.2180682,172.579397,-9.74239485,-0.000100891834,-2.32160183e-05,1.87661528
18.18,52.4529131,168.906721,-9.74273205,-0.000106455694,-2.16881115e-05,1.81512267
18.2,60.2544108,164.94438,-9.74305338,-0.000111142098,-2.03644477e-05,1.74329926
18.22,66.9125117,159.252713,-9.74336671,-0.000114962712,-1.91401836e-05,1.66505554
18.24,73.0075773,153.419246,-9.74367026,-0.000118000103,-1.79029389e-05,1.58430195
18.26,78.5514069,147.490683,-9.74396714,-0.000120275419,-1.66548932e-05,1.50103851
18.28,83.5590327,141.510986,-9.74426002,-0.000121811763,-1.53974563e-05,1.4152652
18.3,88.048327,135.521223,-9.7445511,-0.00012263412,-1.41313304e-05,1.32698203
18.32,91.0740419,128.362954,-9.74485069,-0.000122847566,-1.28442675e-05,1.23844747
18.34,93.5785542,121.305842,-9.74514974,-0.00012258105,-1.15202649e-05,1.15192001
18.36,95.6026065,114.368806,-9.74544861,-0.000121893274,-1.01538192e-05,1.06739964
18.38,97.1856762,107.566538,-9.74574734,-0.000120838456,-8.73938473e-06,0.984886362
18.4,98.3657999,100.909977,-9.74604565,-0.000119466516,-7.27144422e-06,0.904380178
18.42,98.0893743,93.5511838,-9.74635319,-0.000117842908,-5.78180636e-06,0.826362802
18.44,97.4562517,86.3831253,-9.74665748,-0.000116031591,-4.30177209e-06,0.751315949
18.46,96.5052386,79.4017698,-9.74695766,-0.000114073976,-2.82534044e-06,0.679239617
18.48,95.2725276,72.6009999,-9.74725278,-0.000112007468,-1.34682014e-06,0.610133809
18.5,93.7917822,65.9730225,-9.74754184,-0.000109865717,1.39156653e-07,0.543998523
18.52,91.0156832,58.9895577,-9.74783194,-0.000107665625,1.60646664e-06,0.480576764
18.54,88.0419048,52.1800595,-9.74811252,-0.000105419285,3.02846691e-06,0.419611538
18.56,84.8989025,45.5308001,-9.74838266,-0.000103148745,4.40925266e-06,0.361102844
18.58,81.6130522,39.0276521,-9.74864148,-0.000100873873,5.75259809e-06,0.305050682
18.6,78.208776,32.656309,-9.74888813,-9.86124927e-05,7.0619673e-06,0.251455053
18.62,73.7411415,26.1961281,-9.74912551,-9.63579788e-05,8.32403246e-06,0.199897562
18.64,69.1968028,19.8472824,-9.74934819,-9.41006652e-05,9.52486882e-06,0.149959815
18.66,64.5957069,13.5940793,-9.74955554,-9.18516018e-05,1.06666334e-05,0.101641813
18.68,59.956621,7.42113943,-9.74974692,-8.96208709e-05,1.1751244e-05,0.0549435549
18.7,55.2972238,1.31350092,-9.74992176,-8.74176363e-05,1.27803923e-05,0.00986504145
18.72,49.8444875,-4.66498319,-9.75007765,-8.52280129e-05,1.37480636e-05,-0.0339874917
18.74,44.4038876,-10.6075422,-9.75021571,-8.30367321e-05,1.46477712e-05,-0.0770078087
18.76,38.9906629,-16.5289753,-9.75033546,-8.08499768e-05,1.54802042e-05,-0.119195909
18.78,33.6196451,-22.4436042,-9.75043645,-7.86736111e-05,1.62458812e-05,-0.160551794
18.8,28.3053186,-28.3652146,-9.7505182,-7.6513188e-05,1.69451583e-05,-0.201075462
18.82,22.4889337,-33.9707637,-9.75057279,-7.43543128e-05,1.75737505e-05,-0.241107074
18.84,16.7544569,-39.6148207,-9.75060796,-7.21822681e-05,1.81270104e-05,-0.280986787
18.86,11.115766,-45.3106938,-9.75062326,-7.00019462e-05,1.8604531e-05,-0.320714601
18.88,5.58694449,-51.0712359,-9.75061821,-6.78183049e-05,1.90057698e-05,-0.360290518
18.9,0.18232892,-56.9087883,-9.75059229,-6.56363638e-05,1.93300519e-05,-0.399714536
18.92,-5.42530151,-62.2638417,-9.75053266,-6.34441133e-05,1.95709515e-05,-0.439282121
18.94,-10.8887537,-67.725296,-9.75045287,-6.12300055e-05,1.97217505e-05,-0.479288737
18.96,-16.1928589,-73.30496,-9.75035236,-5.90000904e-05,1.97811449e-05,-0.519734384
18.98,-21.3217239,-79.0141727,-9.75023049,-5.67608094e-05,1.97477057e-05,-0.560619062
19,-26.2586827,-84.8637198,-9.75008658,-5.45189968e-05,1.96198797e-05,-0.601942772
19.02,-31.1056012,-90.0756624,-9.74990417,-5.22679113e-05,1.93865708e-05,-0.643952544
19.04,-35.7447516,-95.4511735,-9.74970118,-5.00020258e-05,1.90364541e-05,-0.686895408
19.06,-40.1576448,-101.00012,-9.74947684,-4.77308586e-05,1.8567452e-05,-0.730771364
19.08,-44.3246149,-106.731684,-9.74923033,-4.54646981e-05,1.79773712e-05,-0.775580412
19.1,-48.224763,-112.65423,-9.74896078,-4.32146189e-05,1.72639054e-05,-0.821322553
19.12,-51.7635285,-117.784108,-9.74865013,-4.09846982e-05,1.64111142e-05,-0.868142255
19.14,-55.0244291,-123.116701,-9.74831872,-3.87807978e-05,1.54029708e-05,-0.916183988
19.16,-57.9846628,-128.658211,-9.74796567,-3.6618134e-05,1.42368999e-05,-0.965447751
19.18,-60.6199489,-134.413615,-9.74759012,-3.45131038e-05,1.29102587e-05,-1.01593355
19.2,-62.9044867,-140.386469,-9.7471912,-3.24833175e-05,1.14203506e-05,-1.06764137
19.22,-64.5992834,-145.395754,-9.74675199,-3.05526098e-05,9.75309886e-06,-1.12046312
19.24,-65.9421283,-150.615054,-9.74629308,-2.87457057e-05,7.89473977e-06,-1.17429071
19.26,-66.9074917,-156.043331,-9.74581395,-2.70834069e-05,5.84305607e-06,-1.22912413
19.28,-67.4685041,-161.677512,-9.74531418,-2.55877725e-05,3.59590681e-06,-1.28496337
19.3,-67.5969874,-167.512257,-9.74479347,-2.42821497e-05,1.15125631e-06,-1.34180845
19.32,-66.9850401,-172.177379,-9.74423931,-2.32159293e-05,-1.48190237e-06,-1.39904008
19.34,-65.9630105,-177.0081,-9.74367059,-2.24335291e-05,-4.29337177e-06,-1.45603899
19.36,-64.5095767,-181.991885,-9.74308795,-2.19518781e-05,-7.28306367e-06,-1.51280517
19.38,-62.6030641,-187.113702,-9.74249226,-2.17879879e-05,-1.04505757e-05,-1.56933863
19.4,-60.2216024,-192.355904,-9.74188466,-2.19589658e-05,-1.37951633e-05,-1.62563936
19.42,-57.0842238,-196.177874,-9.74125987,-2.25206047e-05,-1.72540358e-05,-1.68040333
19.44,-53.5430149,-200.057812,-9.7406333,-2.35097763e-05,-2.07619456e-05,-1.73232649
19.46,-49.5937839,-203.972396,-9.74000729,-2.49132219e-05,-2.43138611e-05,-1.78140883
19.48,-45.2335951,-207.897057,-9.73938433,-2.67150868e-05,-2.79043371e-05,-1.82765036
19.5,-40.4609492,-211.806143,-9.73876708,-2.88971145e-05,-3.1527549e-05,-1.87105109
19.52,-35.1207564,-214.03489,-9.73815723,-3.14636295e-05,-3.50787313e-05,-1.91007971
19.54,-29.5100519,-216.18286,-9.73756471,-3.43893116e-05,-3.84503118e-05,-1.94320494
19.56,-23.6503325,-218.229247,-9.73699216,-3.7606877e-05,-4.1631931e-05,-1.97042679
19.58,-17.5647726,-220.155153,-9.7364419,-4.10458997e-05,-4.46132497e-05,-1.99174525
19.6,-11.2781633,-221.943878,-9.73591594,-4.46336571e-05,-4.73840778e-05,-2.00716032
19.62,-4.82352237,-221.88697,-9.73541765,-4.82963238e-05,-4.98934288e-05,-2.01611529
19.64,1.63644495,-221.670448,-9.73495025,-5.19486717e-05,-5.20894302e-05,-2.01805345
19.66,8.06820196,-221.294604,-9.73451382,-5.55001019e-05,-5.396123e-05,-2.0129748
19.68,14.4384725,-220.763267,-9.73410788,-5.88615479e-05,-5.54987173e-05,-2.00087935
19.7,20.7144495,-220.083741,-9.73373142,-6.19466195e-05,-5.66926326e-05,-1.98176709
19.72,26.6852412,-217.590659,-9.73338294,-6.46866193e-05,-5.76021889e-05,-1.956613
19.74,32.3769208,-214.989062,-9.7330622,-6.7034916e-05,-5.82882567e-05,-1.92639207
19.76,37.7718759,-212.300544,-9.73276668,-6.89439481e-05,-5.87453963e-05,-1.89110428
19.78,42.8543369,-209.547906,-9.73249371,-7.03705996e-05,-5.89690329e-05,-1.85074965
19.8,47.6103465,-206.754847,-9.73224045,-7.12766857e-05,-5.89554527e-05,-1.80532818
19.82,51.7178737,-202.355649,-9.73199868,-7.16730755e-05,-5.8795659e-05,-1.75640885
19.84,55.3790617,-197.984809,-9.73177154,-7.15984103e-05,-5.85828092e-05,-1.70556068
19.86,58.6029532,-193.666825,-9.73155668,-7.1061428e-05,-5.83173811e-05,-1.65278366
19.88,61.3995758,-189.424391,-9.73135203,-7.00725805e-05,-5.80002525e-05,-1.5980778
19.9,63.7797427,-185.278323,-9.73115569,-6.86440559e-05,-5.76326537e-05,-1.54144308
19.92,65.3901001,-179.791363,-9.73095435,-6.68321265e-05,-5.72609393e-05,-1.48398426
19.94,66.5305597,-174.456112,-9.73075828,-6.4705403e-05,-5.69325727e-05,-1.42680605
19.96,67.2262423,-169.286436,-9.7305668,-6.22949334e-05,-5.66507041e-05,-1.36990847
19.98,67.5016354,-164.293559,-9.73037951,-5.96305e-05,-5.64184921e-05,-1.31329152
20,67.3804753,-159.486234,-9.73019617,-5.67406485e-05,-5.62390761e-05,-1.25695518
20.02,66.5531266,-153.576018,-9.73000009,-5.3672511e-05,-5.61172752e-05,-1.20133509
20.04,65.3160603,-147.87737,-9.72980761,-5.04743186e-05,-5.60580549e-05,-1.14686687
20.06,63.6973189,-142.392469,-9.72961927,-4.71738169e-05,-5.60646652e-05,-1.0935505
20.08,61.7234921,-137.121483,-9.72943566,-4.37967635e-05,-5.61402422e-05,-1.041386
20.1,59.419716,-132.062797,-9.72925749,-4.03670036e-05,-5.62878017e-05,-0.990373366
20.12,56.5887022,-126.094782,-9.72906631,-3.69066722e-05,-5.64972794e-05,-0.940521586
20.14,53.4328546,-120.339798,-9.72888136,-3.34359065e-05,-5.67583294e-05,-0.891839656
20.16,49.9765639,-114.792481,-9.72870352,-2.99729703e-05,-5.70733794e-05,-0.844327578
20.18,46.2427542,-109.446259,-9.72853367,-2.6534584e-05,-5.74447593e-05,-0.797985351
20.2,42.2529332,-104.29354,-9.72837265,-2.31359881e-05,-5.78747009e-05,-0.752812975
20.22,37.9799998,-98.3956525,-9.72820229,-1.97805612e-05,-5.8353006e-05,-0.70862463
20.24,33.463809,-92.6753809,-9.72804146,-1.64700431e-05,-5.88690967e-05,-0.665234495
20.26,28.7238353,-87.123463,-9.72789096,-1.32154228e-05,-5.9424522e-05,-0.622642569
20.28,23.7784493,-81.7299304,-9.72775157,-1.00267546e-05,-6.00207764e-05,-0.580848854
20.3,18.644972,-76.4842252,-9.72762398,-6.91318932e-06,-6.06592999e-05,-0.539853349
20.32,13.5081354,-70.6469974,-9.72749229,-3.86788119e-06,-6.13334428e-05,-0.49939186
20.34,8.20026692,-64.9320358,-9.72737248,-8.83350239e-07,-6.20361953e-05,-0.459200192
20.36,2.73710085,-59.3280458,-9.72726515,2.03320921e-06,-6.27684024e-05,-0.419278346
20.38,-2.86625056,-53.8232091,-9.7271709,4.87505867e-06,-6.35308894e-05,-0.379626321
20.4,-8.59524992,-48.4052555,-9.72709024,7.63590747e-06,-6.43244595e-05,-0.340244118
20.42,-14.0312284,-42.5532643,-9.72701134,1.03275554e-05,-6.51449441e-05,-0.300823707
20.44,-19.5714743,-36.7577218,-9.72694544,1.29614951e-05,-6.59878472e-05,-0.261057059
20.46,-25.2018908,-31.005853,-9.72689303,1.55313631e-05,-6.68534652e-05,-0.220944173
20.48,-30.9084641,-25.2843629,-9.72685457,1.80308726e-05,-6.7742094e-05,-0.18048505
20.5,-36.677215,-19.57949,-9.72683053,2.04538148e-05,-6.86540253e-05,-0.139679689
20.52,-41.8548339,-13.6122301,-9.72681438,2.28140331e-05,-6.95846159e-05,-0.0981723001
20.54,-47.0674703,-7.63019605,-9.72681158,2.51240917e-05,-7.05288998e-05,-0.0556070938
20.56,-52.3000281,-1.61918349,-9.72682262,2.7375675e-05,-7.14866835e-05,-0.0119840699
20.58,-57.536858,4.43553942,-9.72684799,2.9560132e-05,-7.24577722e-05,0.0326967717
20.6,-62.7616904,10.5491656,-9.72688821,3.16684687e-05,-7.34419633e-05,0.078435431
20.62,-67.109048,16.7302233,-9.72694273,3.37132269e-05,-7.44294996e-05,0.125639982
20.64,-71.4093491,22.9977817,-9.72701085,3.57043794e-05,-7.54102657e-05,0.174718497
20.66,-75.6432661,29.3669227,-9.72709324,3.76281081e-05,-7.63834912e-05,0.225670978
20.68,-79.7901293,35.8530365,-9.72719058,3.94696128e-05,-7.73483651e-05,0.278497424
20.7,-83.8278229,42.4716907,-9.72730361,4.12130698e-05,-7.83040221e-05,0.333197835
20.72,-86.7273582,48.9274956,-9.72743738,4.2861651e-05,-7.92289942e-05,0.390174038
20.74,-89.4730608,55.5315267,-9.7275856,4.44143015e-05,-8.01013889e-05,0.449827861
20.76,-92.0378415,62.2970136,-9.7277492,4.58465676e-05,-8.09195527e-05,0.512159303
20.78,-94.3924141,69.2366661,-9.72792912,4.71319092e-05,-8.16816735e-05,0.577168364
20.8,-96.5051682,76.3624015,-9.72812632,4.82415905e-05,-8.23857513e-05,0.644855045
20.82,-97.2642406,83.0386004,-9.72834967,4.91502578e-05,-8.29944339e-05,0.715339781
20.84,-97.730034,89.8892801,-9.72858869,4.98281113e-05,-8.34699292e-05,0.788743007
20.86,-97.8664202,96.9181581,-9.72884429,5.02356008e-05,-8.38091602e-05,0.865064725
20.88,-97.6348003,104.126641,-9.72911726,5.03298058e-05,-8.40086719e-05,0.944304933
20.9,-96.9940721,111.513365,-9.72940827,5.00642846e-05,-8.40645892e-05,1.02646363
20.92,-94.8724144,118.07145,-9.72972621,4.93572892e-05,-8.39418377e-05,1.11063964
20.94,-92.3033873,124.74433,-9.73005826,4.81327849e-05,-8.36052807e-05,1.19593177
20.96,-89.2512758,131.512558,-9.73040408,4.63485067e-05,-8.3050251e-05,1.28234002
20.98,-85.6798813,138.352593,-9.73076299,4.39599709e-05,-8.22716012e-05,1.3698644
21,-81.5528076,145.236427,-9.73113384,4.09204803e-05,-8.12637021e-05,1.4585049
21.02,-76.0142587,150.787315,-9.73152021,3.71087034e-05,-8.00647042e-05,1.5453437
21.04,-69.9529378,156.252091,-9.73190902,3.24475979e-05,-7.87142335e-05,1.62746297
21.06,-63.3649417,161.582197,-9.73229714,2.69595272e-05,-7.72086508e-05,1.70486271
21.08,-56.2507311,166.72797,-9.7326811,2.06723647e-05,-7.55446009e-05,1.77754292
21.1,-48.6153995,171.639122,-9.73305719,1.36192335e-05,-7.37191302e-05,1.84550361
21.12,-40.025451,174.663413,-9.73342196,5.7960626e-06,-7.18597398e-05,1.90495794
21.14,-31.0909816,177.31623,-9.73376622,-2.72154058e-06,-7.00974269e-05,1.95211909
21.16,-21.8673581,179.555879,-9.73408642,-1.17695653e-05,-6.84361394e-05,1.98698706
21.18,-12.4147971,181.349439,-9.73437974,-2.11761137e-05,-6.68816096e-05,2.00956184
21.2,-2.79738721,182.673542,-9.73464412,-3.0764203e-05,-6.54413799e-05,2.01984344
21.22,6.87830922,181.820976,-9.73487735,-4.03534394e-05,-6.41354221e-05,2.01754303
21.24,16.4453002,180.489168,-9.73507866,-4.97580506e-05,-6.29850994e-05,2.00237179
21.26,25.8354377,178.694731,-9.73524952,-5.87939296e-05,-6.20025569e-05,1.97432972
21.28,34.9836557,176.464697,-9.73539234,-6.72834687e-05,-6.12013464e-05,1.93341681
21.3,43.8290904,173.835855,-9.73551032,-7.50585117e-05,-6.05961868e-05,1.87963307
21.32,51.8039198,169.265571,-9.73560979,-8.20329193e-05,-6.00728154e-05,1.81659614
21.34,59.2821164,164.425419,-9.73569234,-8.81987748e-05,-5.95133595e-05,1.74792367
21.36,66.2514152,159.365831,-9.73576183,-9.35188979e-05,-5.89276938e-05,1.67361566
21.38,72.7046002,154.137639,-9.73582195,-9.79627592e-05,-5.83254188e-05,1.59367211
21.4,78.6393222,148.791471,-9.73587611,-0.000101506759,-5.771576e-05,1.50809302
21.42,83.1915713,142.047494,-9.7359354,-0.000104232743,-5.70502651e-05,1.42003358
21.44,87.1788858,135.32144,-9.73599482,-0.0001062706,-5.62765142e-05,1.332649
21.46,90.6350865,128.64483,-9.73605582,-0.000107672297,-5.53969296e-05,1.24593927
21.48,93.59429,122.044744,-9.73611936,-0.000108487333,-5.44133059e-05,1.1599044
21.5,96.0905839,115.544142,-9.73618602,-0.000108762733,-5.33268757e-05,1.07454438
21.52,97.1008915,108.163459,-9.73626711,-0.000108586002,-5.21655863e-05,0.990949312
21.54,97.6821783,100.953276,-9.73635204,-0.000108051321,-5.09558128e-05,0.910209281
21.56,97.8761467,93.9173759,-9.73644022,-0.000107210474,-4.96958218e-05,0.832324288
21.58,97.7220943,87.0565016,-9.73653093,-0.000106110882,-4.83836354e-05,0.757294333
21.6,97.2569211,80.368831,-9.7366233,-0.000104795819,-4.70170918e-05,0.685119417
21.62,95.4176746,73.1935512,-9.7367268,-0.000103301342,-4.56305626e-05,0.615747899
21.64,93.3188001,66.2076607,-9.73683061,-0.000101658893,-4.42583023e-05,0.549128141
21.66,90.9931436,59.4001534,-9.73693376,-9.98996494e-05,-4.28978641e-05,0.485260142
21.68,88.4711456,52.7590541,-9.73703528,-9.80519874e-05,-4.15468172e-05,0.424143902
21.7,85.7809673,46.2717132,-9.7371342,-9.61416483e-05,-4.02027701e-05,0.365779421
21.72,81.9250499,39.5919598,-9.73723633,-9.41711998e-05,-3.88856432e-05,0.309776766
21.74,77.9467056,33.0524531,-9.73733477,-9.21389138e-05,-3.76156631e-05,0.255746002
21.76,73.8689731,26.6377577,-9.73742876,-9.00611518e-05,-3.6391003e-05,0.20368713
21.78,69.7133402,20.332548,-9.73751759,-8.79529206e-05,-3.52099264e-05,0.15360015
21.8,65.4998528,14.121751,-9.73760055,-8.58279459e-05,-3.40707915e-05,0.105485061
21.82,60.3773193,7.95398878,-9.73767832,-8.36757006e-05,-3.29824743e-05,0.0589292921
21.84,55.2330371,1.85390109,-9.73774998,-8.14831931e-05,-3.1954177e-05,0.0135202699
21.86,50.0837545,-4.19383629,-9.73781503,-7.9259126e-05,-3.09848865e-05,-0.0307420052
21.88,44.9455134,-10.2040986,-9.73787294,-7.70116744e-05,-3.00736767e-05,-0.0738575333
21.9,39.8337202,-16.1912418,-9.73792321,-7.47485052e-05,-2.92197071e-05,-0.115826314
21.92,34.0970137,-21.9370504,-9.73796074,-7.24558961e-05,-2.84273572e-05,-0.15701035
21.94,28.4147097,-27.6909729,-9.73799115,-7.01189988e-05,-2.77012616e-05,-0.197771643
21.96,22.8008926,-33.4669452,-9.738014,-6.7743375e-05,-2.70410768e-05,-0.238110192
21.98,17.2696138,-39.2784321,-9.73802883,-6.53345246e-05,-2.64465244e-05,-0.278025998
22,11.8349406,-45.1383749,-9.73803514,-6.28978854e-05,-2.59173899e-05,-0.317519061
22.02,6.0727875,-50.5831295,-9.73802234,-6.04205615e-05,-2.54582579e-05,-0.356902338
22.04,0.429193376,-56.1070826,-9.73800204,-5.78894611e-05,-2.50738904e-05,-0.396488789
22.06,-5.08149316,-61.7226759,-9.73797373,-5.53098946e-05,-2.47644188e-05,-0.436278413
22.08,-10.4444071,-67.4419024,-9.73793684,-5.26874575e-05,-2.45300155e-05,-0.47627121
22.1,-15.64412,-73.2762382,-9.73789078,-5.00280316e-05,-2.43708923e-05,-0.51646718
22.12,-20.874017,-78.5367458,-9.73782042,-4.73222238e-05,-2.42948969e-05,-0.557136248
22.14,-25.9231954,-83.9386984,-9.73774216,-4.45612752e-05,-2.43099715e-05,-0.59854834
22.16,-30.7747466,-89.4928878,-9.73765529,-4.17527252e-05,-2.44165065e-05,-0.640703454
22.18,-35.4107636,-95.2095445,-9.73755906,-3.89047795e-05,-2.46149004e-05,-0.683601592
22.2,-39.8122874,-101.098227,-9.73745269,-3.60263267e-05,-2.49055546e-05,-0.727242753
22.22,-43.9614796,-106.25963,-9.73731828,-3.3115926e-05,-2.53008752e-05,-0.771825707
22.24,-47.8628501,-111.610364,-9.73717517,-3.01736157e-05,-2.58132364e-05,-0.817549224
22.26,-51.4953988,-117.158479,-9.73702252,-2.72118552e-05,-2.64429566e-05,-0.864413302
22.28,-54.8367403,-122.911071,-9.73685944,-2.42442427e-05,-2.71902994e-05,-0.912417943
22.3,-57.8630529,-128.874105,-9.73668501,-2.1285557e-05,-2.80554616e-05,-0.961563147
22.32,-60.3875903,-133.947804,-9.73648101,-1.83504577e-05,-2.9052191e-05,-1.01187195
22.34,-62.5907473,-139.233557,-9.73626767,-1.54553529e-05,-3.01939653e-05,-1.06336739
22.36,-64.4476619,-144.733879,-9.73604424,-1.26196625e-05,-3.14804086e-05,-1.11604946
22.38,-65.9319932,-150.449604,-9.73581002,-9.86432856e-06,-3.29109818e-05,-1.16991817
22.4,-67.0159139,-156.379649,-9.73556441,-7.2118738e-06,-3.44849624e-05,-1.22497352
22.42,-67.4095366,-161.231176,-9.73529193,-4.7026339e-06,-3.62030551e-05,-1.28084356
22.44,-67.4129179,-166.274318,-9.73501164,-2.37595816e-06,-3.80652787e-05,-1.33715633
22.46,-67.0016934,-171.501713,-9.73472359,-2.54895268e-07,-4.00695365e-05,-1.39391185
22.48,-66.1506172,-176.90358,-9.73442801,1.63643244e-06,-4.22134607e-05,-1.4511101
22.5,-64.8336651,-182.467516,-9.73412538,3.27279321e-06,-4.44943968e-05,-1.5087511
22.52,-62.7461694,-186.720154,-9.73380627,4.59250346e-06,-4.68711028e-05,-1.5658111
22.54,-60.2401677,-191.082623,-9.73348676,5.54497512e-06,-4.93011738e-05,-1.62126639
22.56,-57.3026307,-195.5353,-9.7331685,6.12172375e-06,-5.17798422e-05,-1.67511697
22.58,-53.9211215,-200.056506,-9.7328534,6.31549821e-06,-5.43021721e-05,-1.72736282
22.6,-50.0839957,-204.622541,-9.73254362,6.12022676e-06,-5.68630884e-05,-1.77800396
22.62,-45.5730261,-207.612268,-9.73223724,5.49645963e-06,-5.93665614e-05,-1.82548553
22.64,-40.7178561,-210.577803,-9.73194551,4.43087566e-06,-6.17154191e-05,-1.86825267
22.66,-35.5293928,-213.494857,-9.73167128,2.96061252e-06,-6.39030395e-05,-1.90630539
22.68,-30.02034,-216.339651,-9.73141733,1.12663939e-06,-6.59232124e-05,-1.93964368
22.7,-24.2052623,-219.089208,-9.73118632,-1.02671263e-06,-6.77702294e-05,-1.96826755
22.72,-18.0356886,-220.042026,-9.73098056,-3.46033282e-06,-6.93612062e-05,-1.99106656
22.74,-11.7392785,-220.854181,-9.73080466,-6.11203139e-06,-7.06130819e-05,-2.00693028
22.76,-5.34782752,-221.51564,-9.73065999,-8.89869733e-06,-7.1521111e-05,-2.01585871
22.78,1.10613661,-222.019707,-9.73054744,-1.17355468e-05,-7.20816751e-05,-2.01785185
22.8,7.58955026,-222.363139,-9.73046732,-1.45372144e-05,-7.2292339e-05,-2.0129097
22.82,13.9596018,-220.853593,-9.7304193,-1.72218136e-05,-7.21786874e-05,-2.00141091
22.84,20.1608533,-219.198638,-9.73040241,-1.97159859e-05,-7.17670062e-05,-1.98373413
22.86,26.1662,-217.41266,-9.73041494,-2.19491825e-05,-7.1057644e-05,-1.95987935
22.88,31.950001,-215.512584,-9.73045478,-2.38539224e-05,-7.00520242e-05,-1.92984657
22.9,37.488173,-213.517598,-9.73051947,-2.53666177e-05,-6.87525944e-05,-1.8936358
22.92,42.4951822,-209.815953,-9.73060196,-2.64621892e-05,-6.72596327e-05,-1.85273253
22.94,47.1064689,-206.082044,-9.73070188,-2.71442305e-05,-6.56737854e-05,-1.80862225
22.96,51.3204351,-202.341547,-9.73081649,-2.73975958e-05,-6.39990872e-05,-1.76130496
22.98,55.13706,-198.619385,-9.73094314,-2.72099616e-05,-6.22399309e-05,-1.71078067
23,58.5577339,-194.939533,-9.73107934,-2.6572006e-05,-6.04010022e-05,-1.65704937
23.02,61.2326804,-189.808639,-9.73121211,-2.55251171e-05,-5.85553912e-05,-1.60148257
23.04,63.4331639,-184.78464,-9.73134743,-2.41298058e-05,-5.67758475e-05,-1.54545176
23.06,65.1794543,-179.886562,-9.73148392,-2.24076244e-05,-5.50666221e-05,-1.48895695
23.08,66.4918111,-175.130867,-9.73162049,-2.0379909e-05,-5.3431815e-05,-1.43199814
23.1,67.3903134,-170.531551,-9.73175629,-1.80677991e-05,-5.18753588e-05,-1.37457533
23.12,67.5383883,-164.735959,-9.73187437,-1.5522342e-05,-5.04166572e-05,-1.31738372
23.14,67.2460102,-159.135191,-9.73198781,-1.27994606e-05,-4.90745595e-05,-1.26111851
23.16,66.5412148,-153.735895,-9.73209678,-9.92618725e-06,-4.78518449e-05,-1.20577971
23.18,65.4508061,-148.542362,-9.73220157,-6.92789033e-06,-4.67510515e-05,-1.15136731
23.2,64.0003127,-143.556758,-9.73230261,-3.82833367e-06,-4.57744877e-05,-1.09788132
23.22,61.9379361,-137.586032,-9.73238066,-6.56990618e-07,-4.49143403e-05,-1.04547404
23.24,59.5148784,-131.833449,-9.73245327,2.55778173e-06,-4.41623783e-05,-0.994297762
23.26,56.757432,-126.296246,-9.73252127,5.79626625e-06,-4.35199916e-05,-0.944352497
23.28,53.69036,-120.970142,-9.73258551,9.0403002e-06,-4.29884131e-05,-0.89563824
23.3,50.3369323,-115.849554,-9.73264684,1.22732135e-05,-4.2568731e-05,-0.848154992
23.32,46.5931745,-109.917801,-9.73268562,1.54868365e-05,-4.22482428e-05,-0.801777431
23.34,42.5733481,-104.181599,-9.73272054,1.8674823e-05,-4.20140143e-05,-0.756380234
23.36,38.2989183,-98.6329809,-9.73275247,2.18251029e-05,-4.18666294e-05,-0.711963401
23.38,33.7900721,-93.2631086,-9.73278226,2.49266191e-05,-4.18066041e-05,-0.668526932
23.4,29.0657733,-88.0624173,-9.73281069,2.79692925e-05,-4.18343927e-05,-0.626070828
23.42,24.2187903,-82.2065391,-9.73281985,3.09577087e-05,-4.19405219e-05,-0.584355716
23.44,19.1717501,-76.4976197,-9.73282671,3.38974919e-05,-4.21154243e-05,-0.543142224
23.46,13.9417228,-70.9250852,-9.73283199,3.67812382e-05,-4.23593606e-05,-0.502430353
23.48,8.54494825,-65.4777924,-9.73283632,3.96020734e-05,-4.26725801e-05,-0.462220102
23.5,2.99688693,-60.1441165,-9.73284031,4.23536423e-05,-4.30553228e-05,-0.422511472
23.52,-2.38244011,-54.3097092,-9.73282974,4.50469209e-05,-4.35019219e-05,-0.38301378
23.54,-7.8935895,-48.5600196,-9.73281777,4.76930234e-05,-4.40067086e-05,-0.343436344
23.56,-13.5220735,-42.8828724,-9.73280493,5.02862986e-05,-4.45699303e-05,-0.303779164
23.58,-19.2537199,-37.2655831,-9.73279172,5.28212482e-05,-4.51918558e-05,-0.26404224
23.6,-25.0746257,-31.6950149,-9.73277861,5.52925268e-05,-4.5872775e-05,-0.224225573
23.62,-30.4277222,-25.7883722,-9.7327566,5.77140831e-05,-4.66086111e-05,-0.183994689
23.64,-35.8455547,-19.8969729,-9.73273366,6.00991248e-05,-4.73953526e-05,-0.143015119
23.66,-41.3137988,-14.0071964,-9.73271027,6.24411459e-05,-4.82334353e-05,-0.101286861
23.68,-46.8178581,-8.10488634,-9.73268688,6.47334174e-05,-4.91233352e-05,-0.0588099149
23.7,-52.3428066,-2.17540705,-9.73266396,6.69689825e-05,-5.00655676e-05,-0.0155842818
23.72,-57.1070964,3.90606683,-9.73263869,6.91620832e-05,-5.10538589e-05,0.0287777347
23.74,-61.8607736,10.0446054,-9.73261318,7.13251134e-05,-5.20820522e-05,0.0746638304
23.76,-66.586702,16.2550815,-9.732588,7.34476084e-05,-5.31508998e-05,0.122074005
23.78,-71.2667506,22.5528159,-9.73256374,7.55183254e-05,-5.42611962e-05,0.17100826
23.8,-75.8817066,28.9534809,-9.73254103,7.75252084e-05,-5.54137719e-05,0.221466593
23.82,-79.462807,35.2924242,-9.7325233,7.94772284e-05,-5.65944307e-05,0.273869384
23.84,-82.9382245,41.756288,-9.73250697,8.13799056e-05,-5.77890993e-05,0.328637009
23.86,-86.2844899,48.359648,-9.73249285,8.32141124e-05,-5.89988227e-05,0.385769469
23.88,-89.476279,55.1170085,-9.7324818,8.4958953e-05,-6.02246399e-05,0.445266764
23.9,-92.4862894,62.0425989,-9.7324747,8.65916602e-05,-6.14675659e-05,0.507128893
23.92,-94.2249134,68.6467001,-9.73248011,8.81016097e-05,-6.26991523e-05,0.571650902
23.94,-95.7321187,75.4212872,-9.73248978,8.9473186e-05,-6.38909184e-05,0.639127836
23.96,-96.9752921,82.3754011,-9.73250473,9.06723251e-05,-6.50436958e-05,0.709559694
23.98,-97.9193087,89.516631,-9.73252593,9.16616831e-05,-6.61581436e-05,0.782946477
24,-98.5264356,96.8507277,-9.73255429,9.24004476e-05,-6.72347024e-05,0.859288184
24.02,-97.6900034,103.527903,-9.73260053,9.28308149e-05,-6.82351526e-05,0.93823563
24.04,-96.4684918,110.359343,-9.73265347,9.2893432e-05,-6.91206425e-05,1.01943963
24.06,-94.8235985,117.337037,-9.73271356,9.25396141e-05,-6.98901414e-05,1.10290019
24.08,-92.7153031,124.449418,-9.73278095,9.17167893e-05,-7.0542131e-05,1.1886173
24.1,-90.1020015,131.680878,-9.73285551,9.03683688e-05,-7.10745378e-05,1.27659096
24.12,-86.0133164,137.804099,-9.73294505,8.83735472e-05,-7.14858432e-05,1.36481358
24.14,-81.4131086,143.943006,-9.7330374,8.56345781e-05,-7.17726956e-05,1.45127754
24.16,-76.2791762,150.059922,-9.73313067,8.21273204e-05,-7.19294029e-05,1.53598286
24.18,-70.5915486,156.113815,-9.73322254,7.78289622e-05,-7.19497408e-05,1.61892953
24.2,-64.3328916,162.060337,-9.73331019,7.27181049e-05,-7.1826971e-05,1.70011754
24.22,-56.8707598,166.341528,-9.73339422,6.67075956e-05,-7.166135e-05,1.7756985
24.24,-48.9495165,170.366743,-9.73346434,5.97829242e-05,-7.15508962e-05,1.84182399
24.26,-40.6001702,174.083843,-9.73351646,5.2041404e-05,-7.14855439e-05,1.89849402
24.28,-31.8596359,177.445145,-9.73354666,4.35907515e-05,-7.14559386e-05,1.94570857
24.3,-22.7703608,180.40833,-9.73355137,3.45476638e-05,-7.14536372e-05,1.98346766
24.32,-13.2125185,181.257621,-9.73352792,2.50310478e-05,-7.15584902e-05,2.00954833
24.34,-3.55740524,181.632563,-9.73347339,1.52122929e-05,-7.18505513e-05,2.02172761
24.36,6.12163697,181.523064,-9.73338684,5.29631202e-06,-7.23240258e-05,2.0200055
24.38,15.7508101,180.930843,-9.73326842,-4.5100564e-06,-7.29752754e-05,2.00438201
24.4,25.2572489,179.869387,-9.73311933,-1.40017021e-05,-7.38028614e-05,1.97485714
24.42,34.2454735,176.708714,-9.73294373,-2.30110912e-05,-7.47130151e-05,1.93386366
24.44,42.8645743,173.162485,-9.73274514,-3.14270284e-05,-7.56136986e-05,1.88383434
24.46,51.0754053,169.274674,-9.73252724,-3.91378784e-05,-7.65086303e-05,1.82476918
24.48,58.8444167,165.094034,-9.73229398,-4.60403963e-05,-7.74026471e-05,1.75666817
24.5,66.1439533,160.673193,-9.73204944,-5.20410651e-05,-7.8301537e-05,1.67953133
24.52,72.214489,154.617013,-9.73180479,-5.71582582e-05,-7.91086796e-05,1.59716088
24.54,77.7116916,148.468993,-9.73155984,-6.14814159e-05,-7.97276461e-05,1.51335904
24.56,82.6552589,142.27225,-9.73131726,-6.50325713e-05,-8.01648486e-05,1.42812581
24.58,87.0672466,136.066366,-9.73107923,-6.78348512e-05,-8.04263178e-05,1.34146119
24.6,90.971663,129.887391,-9.73084747,-6.99123975e-05,-8.0517666e-05,1.25336518
24.62,93.3965974,122.627475,-9.73063476,-7.13592477e-05,-8.04465134e-05,1.16573176
24.64,95.3244357,115.494183,-9.73043372,-7.2291086e-05,-8.02197916e-05,1.08045491
24.66,96.7970512,108.501642,-9.73024442,-7.27623338e-05,-7.984128e-05,0.997534619
24.68,97.8546023,101.66003,-9.73006661,-7.28236265e-05,-7.93141849e-05,0.916970891
24.7,98.5354175,94.9760723,-9.7298998,-7.25219303e-05,-7.86411926e-05,0.838763726
24.72,97.7792759,87.6555966,-9.72975554,-7.19126979e-05,-7.78628219e-05,0.763205986
24.74,96.695309,80.5285314,-9.72962379,-7.10496513e-05,-7.70190862e-05,0.69059053
24.76,95.3207293,73.588393,-9.72950363,-6.99719953e-05,-7.61113112e-05,0.620917358
24.78,93.6901502,66.826969,-9.72939407,-6.87157485e-05,-7.51405361e-05,0.554186472
24.8,91.8356887,60.2346952,-9.72929411,-6.73139086e-05,-7.4107558e-05,0.49039787
24.82,88.7211951,53.3363055,-9.72921219,-6.57804589e-05,-7.30414951e-05,0.42924119
24.84,85.4320876,46.6033211,-9.72914048,-6.41244552e-05,-7.19712219e-05,0.370406068
24.86,81.9951486,40.0213116,-9.72907812,-6.23680141e-05,-7.08969393e-05,0.313892504
24.88,78.4352297,33.5756256,-9.72902425,-6.05315551e-05,-6.98187654e-05,0.259700498
24.9,74.7753741,27.2515855,-9.72897809,-5.86338877e-05,-6.87367574e-05,0.20783005
24.92,70.0954513,20.8781497,-9.72894323,-5.66692619e-05,-6.76653715e-05,0.157860504
24.94,65.3556616,14.6037192,-9.72891689,-5.46284905e-05,-6.66189375e-05,0.109371207
24.96,60.5748962,8.41264138,-9.72889846,-5.25235164e-05,-6.55972815e-05,0.0623621571
24.98,55.7710086,2.28963098,-9.72888735,-5.03655629e-05,-6.46002266e-05,0.0168333551
25,50.9609005,-3.78013768,-9.72888301,-4.81651612e-05,-6.36276015e-05,-0.0272151993
25.02,45.4053221,-9.68748995,-9.72888319,-4.59102082e-05,-6.26858146e-05,-0.0701683357
25.04,39.874598,-15.5717084,-9.7288912,-4.35867224e-05,-6.17811739e-05,-0.112410884
25.06,34.3835244,-21.4473516,-9.72890659,-4.1201786e-05,-6.09133728e-05,-0.153942845
25.08,28.946603,-27.3284985,-9.72892888,-3.8762312e-05,-6.00821172e-05,-0.194764217
25.1,23.5780974,-33.228693,-9.72895761,-3.62750467e-05,-5.92871275e-05,-0.234875002
25.12,17.7576364,-38.7836531,-9.72898456,-3.37272387e-05,-5.85325018e-05,-0.2746071
25.14,12.0298032,-44.3890983,-9.729019,-3.11053603e-05,-5.78222182e-05,-0.314292412
25.16,6.40852395,-50.058086,-9.72906045,-2.84150242e-05,-5.71558292e-05,-0.353930938
25.18,0.90802294,-55.8032234,-9.72910841,-2.5662051e-05,-5.65328864e-05,-0.393522679
25.2,-4.45713132,-61.6366083,-9.72916235,-2.28524693e-05,-5.59529411e-05,-0.433067635
25.22,-9.97521292,-66.9608852,-9.72920877,-1.99757595e-05,-5.54215453e-05,-0.47285426
25.24,-15.3387131,-72.4020642,-9.72926192,-1.70215302e-05,-5.49440823e-05,-0.513171009
25.26,-20.5320279,-77.9716831,-9.72932119,-1.39965938e-05,-5.4519828e-05,-0.554017883
25.28,-25.5387482,-83.6807918,-9.72938591,-1.09083535e-05,-5.41480269e-05,-0.595394882
25.3,-30.3416093,-89.5398621,-9.72945538,-7.76481882e-06,-5.38278904e-05,-0.637302004
25.32,-35.0068056,-94.7356179,-9.72951226,-4.56131605e-06,-5.3568592e-05,-0.67997483
25.34,-39.4529663,-100.103066,-9.72957422,-1.29424976e-06,-5.33790654e-05,-0.723648938
25.36,-43.6609035,-105.651623,-9.72964046,2.02550055e-06,-5.32580782e-05,-0.768324327
25.38,-47.6101859,-111.389957,-9.72971014,5.38597095e-06,-5.32043153e-05,-0.814000998
25.4,-51.2790837,-117.325843,-9.72978237,8.77407117e-06,-5.32163749e-05,-0.860678951
25.42,-54.5444747,-122.441941,-9.72983814,1.21817758e-05,-5.330632e-05,-0.908473952
25.44,-57.5195666,-127.764701,-9.72989656,1.55991498e-05,-5.34859016e-05,-0.957501768
25.46,-60.1808809,-133.299406,-9.72995679,1.90081856e-05,-5.37530738e-05,-1.0077624
25.48,-62.5034412,-139.049994,-9.730018,2.23892453e-05,-5.41056399e-05,-1.05925584
25.5,-64.4607399,-145.018843,-9.73007939,2.57209903e-05,-5.45412463e-05,-1.1119821
25.52,-65.7962818,-149.992443,-9.73012311,2.89723482e-05,-5.50663649e-05,-1.1657672
25.54,-66.7680552,-155.172767,-9.73016767,3.21111085e-05,-5.56871607e-05,-1.22043717
25.56,-67.3505653,-160.557107,-9.73021269,3.51116598e-05,-5.64005594e-05,-1.275992
25.58,-67.5170756,-166.140588,-9.73025792,3.79466794e-05,-5.7203302e-05,-1.3324317
25.6,-67.2396581,-171.915943,-9.73030327,4.05870707e-05,-5.8091946e-05,-1.38975627
25.62,-66.207821,-176.482494,-9.73033546,4.29737948e-05,-5.90447793e-05,-1.44723453
25.64,-64.7606933,-181.200866,-9.73037051,4.50530346e-05,-6.00400559e-05,-1.50413534
25.66,-62.8788332,-186.056392,-9.73040935,4.68020763e-05,-6.10741089e-05,-1.56045868
25.68,-60.5427014,-191.031959,-9.73045319,4.81980878e-05,-6.21432458e-05,-1.61620455
25.7,-57.7328363,-196.107928,-9.73050348,4.92181072e-05,-6.32437795e-05,-1.67137296
25.72,-54.1829091,-199.718578,-9.73055404,4.98006601e-05,-6.43010367e-05,-1.72456357
25.74,-50.2412837,-203.364164,-9.73061677,4.99042097e-05,-6.52410392e-05,-1.77437602
25.76,-45.9079047,-207.02048,-9.73069423,4.95382186e-05,-6.60615025e-05,-1.82081033
25.78,-41.1841933,-210.662517,-9.73078909,4.87154948e-05,-6.67606419e-05,-1.86386649
25.8,-36.0732048,-214.264672,-9.73090412,4.74520128e-05,-6.73372302e-05,-1.9035445
25.82,-30.4488453,-216.148486,-9.7310392,4.57471716e-05,-6.76952204e-05,-1.93838619
25.84,-24.5909715,-217.93118,-9.7312002,4.36292169e-05,-6.77399668e-05,-1.96693338
25.86,-18.5247859,-219.594405,-9.73138948,4.11633643e-05,-6.74735947e-05,-1.98918607
25.88,-12.2769809,-221.122234,-9.73160902,3.84190798e-05,-6.68993148e-05,-2.00514427
25.9,-5.87563058,-222.501416,-9.73186039,3.54692299e-05,-6.60214229e-05,-2.01480796
25.92,0.61355505,-222.025188,-9.73214362,3.23899952e-05,-6.48248996e-05,-2.01788299
25.94,7.05719758,-221.388495,-9.73245799,2.92647745e-05,-6.32954605e-05,-2.01407518
25.96,13.4225909,-220.59593,-9.73280299,2.61796911e-05,-6.14400603e-05,-2.00338453
25.98,19.6776881,-219.655481,-9.73317757,2.3220518e-05,-5.92665919e-05,-1.98581105
26,25.7912901,-218.578394,-9.7335802,2.04715779e-05,-5.67837806e-05,-1.96135473
26.02,31.5283203,-215.713116,-9.73400515,1.79944065e-05,-5.40819376e-05,-1.93118322
26.04,36.9475055,-212.759095,-9.73444949,1.58264607e-05,-5.12502075e-05,-1.89646414
26.06,42.035725,-209.73985,-9.73491051,1.40121068e-05,-4.8296299e-05,-1.85719751
26.08,46.7817144,-206.679518,-9.73538541,1.25925728e-05,-4.52280875e-05,-1.81338332
26.1,51.1759871,-203.602565,-9.73587137,1.16054824e-05,-4.20535218e-05,-1.76502156
26.12,54.8857422,-198.963275,-9.73635612,1.10373206e-05,-3.88684489e-05,-1.71365584
26.14,58.1362506,-194.3763,-9.73684137,1.08485693e-05,-3.57665859e-05,-1.66082972
26.16,60.940298,-189.864918,-9.73732505,1.10340679e-05,-3.27524659e-05,-1.60654321
26.18,63.3113715,-185.450295,-9.73780535,1.15875627e-05,-2.9830319e-05,-1.55079631
26.2,65.2634609,-181.151467,-9.73828072,1.25016515e-05,-2.70040604e-05,-1.49358901
26.22,66.4454693,-175.554847,-9.73873426,1.37278112e-05,-2.43119235e-05,-1.43590729
26.24,67.163798,-170.124774,-9.73917532,1.52066512e-05,-2.17905351e-05,-1.37873711
26.26,67.4448295,-164.872976,-9.7396035,1.69143607e-05,-1.94409315e-05,-1.32207847
26.28,67.3141055,-159.808578,-9.74001865,1.88281516e-05,-1.72638673e-05,-1.26593137
26.3,66.7962304,-154.938311,-9.74042079,2.09262297e-05,-1.5259842e-05,-1.2102958
26.32,65.5958786,-149.000583,-9.74079026,2.3171604e-05,-1.3425824e-05,-1.1555156
26.34,63.9994961,-143.278191,-9.74114239,2.55262961e-05,-1.17580457e-05,-1.10193459
26.36,62.0347855,-137.771731,-9.74147784,2.79688738e-05,-1.02556263e-05,-1.04955276
26.38,59.7279505,-132.479929,-9.74179732,3.04793518e-05,-8.91757156e-06,-0.998370111
26.4,57.1037077,-127.399873,-9.74210161,3.30391447e-05,-7.74279627e-06,-0.948386651
26.42,53.9897226,-121.439597,-9.7423701,3.56333027e-05,-6.71622575e-06,-0.899565545
26.44,50.5652108,-115.688414,-9.74262084,3.82485803e-05,-5.82261068e-06,-0.851869962
26.46,46.8537285,-110.140096,-9.74285474,4.08707969e-05,-5.06054448e-06,-0.805299903
26.48,42.87741,-104.78732,-9.74307267,4.34868477e-05,-4.42862548e-06,-0.759855368
26.5,38.6570208,-99.6218371,-9.7432755,4.60846707e-05,-3.92546706e-06,-0.715536356
26.52,34.1986685,-93.7373008,-9.74344377,4.86648974e-05,-3.5378965e-06,-0.672138573
26.54,29.509828,-88.0221274,-9.74359517,5.12296542e-05,-3.25282716e-06,-0.629457724
26.56,24.6092265,-82.4666282,-9.74373047,5.37703527e-05,-3.06905976e-06,-0.587493809
26.58,19.5145634,-77.0604572,-9.74385041,5.62790209e-05,-2.9854532e-06,-0.546246828
26.6,14.2425638,-71.7927195,-9.74395567,5.8748292e-05,-3.00092789e-06,-0.505716781
26.62,9.01631305,-65.9593527,-9.74403006,6.11872287e-05,-3.10712078e-06,-0.46563121
26.64,3.63045679,-60.2377459,-9.74408847,6.36056061e-05,-3.29587094e-06,-0.425717657
26.66,-1.89970839,-54.616341,-9.74413152,6.59977546e-05,-3.56650941e-06,-0.385976122
26.68,-7.55942165,-49.0830651,-9.74415974,6.83582486e-05,-3.91844851e-06,-0.346406606
26.7,-13.3344114,-43.6253977,-9.74417365,7.06819083e-05,-4.35118355e-06,-0.307009108
26.72,-18.7659982,-37.761319,-9.74416204,7.29820803e-05,-4.85971132e-06,-0.267468354
26.74,-24.2906364,-31.9419807,-9.74413538,7.52720342e-05,-5.43930745e-06,-0.227469072
26.76,-29.8942602,-26.1543647,-9.74409415,7.75465862e-05,-6.09002361e-06,-0.187011261
26.78,-35.5627887,-20.3849274,-9.74403881,7.98004571e-05,-6.81201401e-06,-0.146094922
26.8,-41.2820754,-14.6196525,-9.7439698,8.20282716e-05,-7.60553882e-06,-0.104720053
26.82,-46.3608987,-8.62287732,-9.74388212,8.4245201e-05,-8.4658088e-06,-0.0625217532
26.84,-51.462149,-2.59912566,-9.74378081,8.64654309e-05,-9.38840117e-06,-0.0191351179
26.86,-56.5702617,3.46602593,-9.74366639,8.86816336e-05,-1.03743062e-05,0.0254398526
26.88,-61.668998,9.58751554,-9.74353938,9.08859292e-05,-1.14246506e-05,0.0712031582
26.9,-66.7413723,15.7807233,-9.74340031,9.30698624e-05,-1.2540703e-05,0.118154799
26.92,-70.8902325,22.0055325,-9.74325081,9.52466943e-05,-1.37131567e-05,0.16670917
26.94,-74.9761327,28.3283642,-9.74309032,9.74273549e-05,-1.49331738e-05,0.217280667
26.96,-78.9786789,34.7642746,-9.74291953,9.95984727e-05,-1.62029659e-05,0.269869288
26.98,-82.8759882,41.3285439,-9.74273919,0.000101745312,-1.75249218e-05,0.324475035
27,-86.6445787,48.036528,-9.74255007,0.000103851693,-1.89016118e-05,0.381097908
27.02,-89.2348916,54.5381822,-9.74235984,0.000105919039,-2.03128976e-05,0.440121076
27.04,-91.6502398,61.1959869,-9.74216294,0.000107944565,-2.17391275e-05,0.50192771
27.06,-93.8619607,68.0222877,-9.74196036,0.000109902657,-2.31838768e-05,0.566517811
27.08,-95.839076,75.0286793,-9.74175306,0.000111764915,-2.4650898e-05,0.633891378
27.1,-97.5481681,82.2257011,-9.74154203,0.000113499965,-2.6144108e-05,0.704048411
27.12,-97.8741634,88.9170936,-9.74133878,0.000115074454,-2.76303845e-05,0.777005233
27.14,-97.8807193,95.7806948,-9.74113427,0.000116450472,-2.90766283e-05,0.852778166
27.16,-97.530623,102.817384,-9.74092932,0.000117584364,-3.04869332e-05,0.93136721
27.18,-96.7843092,110.025358,-9.74072463,0.00011842814,-3.18653947e-05,1.01277237
27.2,-95.5998652,117.399649,-9.74052071,0.000118929235,-3.32160551e-05,1.09699363
27.22,-92.9280037,123.869492,-9.74032866,0.000118989657,-3.45171476e-05,1.18284837
27.24,-89.7864246,130.431059,-9.7401377,0.000118518541,-3.5745075e-05,1.26915392
27.26,-86.1419499,137.059735,-9.73994717,0.000117468636,-3.69007534e-05,1.3559103
27.28,-81.961598,143.726795,-9.73975594,0.000115790283,-3.79846343e-05,1.44311751
27.3,-77.2129251,150.399113,-9.73956243,0.000113431412,-3.89966252e-05,1.53077554
27.32,-71.0970359,155.643399,-9.73937189,0.000110261371,-3.99973432e-05,1.61562532
27.34,-64.4659367,160.754581,-9.739174,0.000106198507,-4.10421267e-05,1.69440779
27.36,-57.3250092,165.681263,-9.73896521,0.000101268209,-4.21219663e-05,1.76712296
27.38,-49.6847095,170.372304,-9.73874178,9.5503313e-05,-4.32271889e-05,1.83377082
27.4,-41.5607029,174.777471,-9.73849979,8.89437866e-05,-4.43475353e-05,1.89435137
27.42,-32.6070253,177.217343,-9.73823816,8.16041607e-05,-4.55981104e-05,1.94534894
27.44,-23.3711823,179.246758,-9.73795162,7.35745468e-05,-4.70885192e-05,1.98324787
27.46,-13.9163045,180.831458,-9.73763717,6.50223487e-05,-4.88000725e-05,2.00804815
27.48,-4.30937944,181.947344,-9.73729265,5.61245173e-05,-5.07145945e-05,2.01974979
27.5,5.37992631,182.581077,-9.73691687,4.70645596e-05,-5.28147043e-05,2.01835279
27.52,14.957193,181.040737,-9.73651163,3.80257116e-05,-5.50629153e-05,2.00441136
27.54,24.3442109,179.037027,-9.73608011,2.91805683e-05,-5.74231384e-05,1.97847969
27.56,33.4790997,176.596254,-9.73562457,2.06977454e-05,-5.98818574e-05,1.9405578
27.58,42.3041723,173.753826,-9.73514807,1.27410549e-05,-6.24269981e-05,1.89064569
27.6,50.7668418,170.553419,-9.73465427,5.46684802e-06,-6.5047981e-05,1.82874335
27.62,58.2382544,165.492586,-9.73415325,-1.05967422e-06,-6.7608323e-05,1.75869222
27.64,65.1788387,160.213581,-9.73364878,-6.85165911e-06,-6.99771534e-05,1.68433375
27.66,71.5867029,154.766374,-9.73314449,-1.18807755e-05,-7.21538628e-05,1.60566794
27.68,77.4643688,149.199882,-9.73264372,-1.61232918e-05,-7.41383443e-05,1.52269479
27.7,82.8184701,143.56153,-9.73214945,-1.95603135e-05,-7.59308883e-05,1.4354143
27.72,86.7494785,136.619885,-9.73167527,-2.22690919e-05,-7.74949289e-05,1.34663035
27.74,90.1298985,129.733267,-9.7312177,-2.43679837e-05,-7.87971223e-05,1.25914681
27.76,92.997136,122.928056,-9.73077775,-2.59018576e-05,-7.98426142e-05,1.17296369
27.78,95.3881866,116.226176,-9.73035599,-2.69133744e-05,-8.06362526e-05,1.088081
27.8,97.339369,109.645493,-9.72995264,-2.74429947e-05,-8.11825654e-05,1.00449872
27.82,97.8128096,102.259347,-9.72958077,-2.75618389e-05,-8.15181864e-05,0.923036112
27.84,97.8863981,95.0544358,-9.72923179,-2.73458184e-05,-8.16802595e-05,0.844512425
27.86,97.6009001,88.031074,-9.728905,-2.68384396e-05,-8.16735696e-05,0.768927659
27.88,96.9945435,81.1869282,-9.72859956,-2.60799833e-05,-8.15025756e-05,0.696281813
27.9,96.1030621,74.5174707,-9.72831455,-2.51076397e-05,-8.11714354e-05,0.626574889
27.92,93.8676975,67.415654,-9.72806051,-2.39477523e-05,-8.07183173e-05,0.559657986
27.94,91.3985713,60.4981251,-9.72782898,-2.26223e-05,-8.01808935e-05,0.495382208
27.96,88.7267265,53.752589,-9.72761901,-2.11581678e-05,-7.95622359e-05,0.433747554
27.98,85.8809217,47.1660349,-9.72742967,-1.95802785e-05,-7.88652582e-05,0.374754024
28,82.8877594,40.7249994,-9.72726005,-1.79116835e-05,-7.80927383e-05,0.318401618
28.02,78.769379,34.1345259,-9.7271163,-1.61519887e-05,-7.72668635e-05,0.264284167
28.04,74.5477914,27.6729484,-9.72699377,-1.42967708e-05,-7.64091603e-05,0.211995504
28.06,70.2447034,21.3246557,-9.72689174,-1.2361006e-05,-7.55212829e-05,0.161535629
28.08,65.8804236,15.0742419,-9.72680955,-1.03587814e-05,-7.46048362e-05,0.112904541
28.1,61.4739641,8.90663221,-9.72674654,-8.30332538e-06,-7.36613881e-05,0.0661022396
28.12,56.2047317,2.81757049,-9.72670311,-6.18430973e-06,-7.27013867e-05,0.0207229486
28.14,50.9279038,-3.21664617,-9.72668011,-3.98897567e-06,-7.17346783e-05,-0.0236391099
28.16,45.6595449,-9.21114589,-9.72667705,-1.72608191e-06,-7.07618987e-05,-0.0669839358
28.18,40.4151381,-15.1805912,-9.72669342,5.95876806e-07,-6.97836754e-05,-0.109311529
28.2,35.2096507,-21.1391147,-9.72672876,2.96866799e-06,-6.88006343e-05,-0.15062189
28.22,29.4286934,-26.825628,-9.72677718,5.40468537e-06,-6.78180163e-05,-0.191267977
28.24,23.7134585,-32.5326633,-9.72684535,7.91750676e-06,-6.68405272e-05,-0.231602748
28.26,18.077889,-38.2739017,-9.72693284,1.05007658e-05,-6.58679888e-05,-0.271626203
28.28,12.5359936,-44.0625597,-9.72703917,1.31479575e-05,-6.490022e-05,-0.311338343
28.3,7.10189467,-49.9113359,-9.72716385,1.58524409e-05,-6.39370408e-05,-0.350739168
28.32,1.39069038,-55.3174297,-9.72729513,1.86252066e-05,-6.29831139e-05,-0.390134461
28.34,-4.19159485,-60.8139169,-9.72744486,2.14774617e-05,-6.20425933e-05,-0.429830007
28.36,-9.63032636,-66.4129874,-9.72761249,2.44024098e-05,-6.11145278e-05,-0.469825806
28.38,-14.910268,-72.1263777,-9.72779743,2.73927387e-05,-6.01979519e-05,-0.510121857
28.4,-20.0155343,-77.9652965,-9.72799908,3.04406113e-05,-5.92918895e-05,-0.550718161
28.42,-25.1020144,-83.204537,-9.72820092,3.35525815e-05,-5.84034031e-05,-0.591876132
28.44,-29.9969708,-88.5944884,-9.72841868,3.6734456e-05,-5.75390515e-05,-0.633857182
28.46,-34.6828851,-94.1455955,-9.72865163,3.99761514e-05,-5.66970703e-05,-0.676661312
28.48,-39.1411661,-99.8676991,-9.728899,4.32665893e-05,-5.58756611e-05,-0.720288521
28.5,-43.3520953,-105.769916,-9.72915999,4.6593661e-05,-5.50729966e-05,-0.764738811
28.52,-47.2658436,-110.918656,-9.72941522,4.99540046e-05,-5.42995687e-05,-0.810191525
28.54,-50.9197647,-116.262711,-9.72968249,5.33424851e-05,-5.35654205e-05,-0.856826009
28.56,-54.2921177,-121.809449,-9.72996095,5.67423815e-05,-5.28679918e-05,-0.904642262
28.58,-57.3597318,-127.565183,-9.73024973,6.01353754e-05,-5.22046736e-05,-0.953640286
28.6,-60.097958,-133.534985,-9.73054795,6.35014835e-05,-5.15728156e-05,-1.00382008
28.62,-62.2974615,-138.58609,-9.73083598,6.68179534e-05,-5.0982381e-05,-1.0551568
28.64,-64.1630773,-143.849407,-9.73113169,7.00599837e-05,-5.04431551e-05,-1.10762561
28.66,-65.6695633,-149.326114,-9.73143443,7.32017669e-05,-4.99521689e-05,-1.16122651
28.68,-66.7902386,-155.015563,-9.73174361,7.62154863e-05,-4.95064312e-05,-1.2159595
28.7,-67.4969895,-160.915043,-9.73205876,7.90712409e-05,-4.91029475e-05,-1.27182457
28.72,-67.4907092,-165.700162,-9.73236323,8.17174968e-05,-4.87357936e-05,-1.32835542
28.74,-67.085151,-170.667744,-9.73267308,8.41041808e-05,-4.83996252e-05,-1.38508575
28.76,-66.2569218,-175.808379,-9.73298858,8.62011013e-05,-4.80924069e-05,-1.44201555
28.78,-64.9819409,-181.110173,-9.73331022,8.79768898e-05,-4.78122378e-05,-1.49914482
28.8,-63.2355666,-186.558582,-9.73363877,8.9398985e-05,-4.75573903e-05,-1.55647357
28.82,-60.7205489,-190.652269,-9.73396378,9.03969382e-05,-4.727941e-05,-1.61286021
28.84,-57.7905158,-194.835859,-9.73429781,9.09138017e-05,-4.69317756e-05,-1.66716318
